# timestamp ang_v_x ang_v_y ang_v_z lin_acc_x lin_acc_y lin_acc_z qx qy qz qw
28.488000000000 -0.000078322127 -0.000000624151 -0.000000176073 -0.000000000001 -0.000000000000 0.000000000000 -0.000002506053 -0.000000003536 -0.000003513956 0.999999999991
28.493000000000 -0.000078322127 -0.000000625729 -0.000000176073 -0.000000000023 0.000000000001 -0.000000000000 -0.000002506053 -0.000000004018 -0.000003514572 0.999999999991
28.498000000000 -0.000078322127 -0.000000627138 -0.000000176073 -0.000000000023 -0.000000000001 0.000000000000 -0.000002506053 -0.000000004504 -0.000003515187 0.999999999991
28.503000000000 -0.000078322127 -0.000000628377 -0.000000176073 -0.000000000023 -0.000000000001 -0.000000000000 -0.000002506053 -0.000000004993 -0.000003515803 0.999999999991
28.508000000000 -0.000078322127 -0.000000629445 -0.000000176073 -0.000000000023 0.000000000001 0.000000000001 -0.000002506053 -0.000000005485 -0.000003516419 0.999999999991
28.513000000000 -0.000078322127 -0.000000630341 -0.000000176073 -0.000000000022 -0.000000000001 -0.000000000000 -0.000002506053 -0.000000005979 -0.000003517034 0.999999999991
28.518000000000 -0.000078322127 -0.000000631064 -0.000000176073 -0.000000000022 0.000000000000 0.000000000000 -0.000002506053 -0.000000006475 -0.000003517650 0.999999999991
28.523000000000 -0.000078322127 -0.000000631614 -0.000000176073 -0.000000000022 0.000000000000 -0.000000000000 -0.000002506053 -0.000000006973 -0.000003518265 0.999999999991
28.528000000000 -0.000078322127 -0.000000631989 -0.000000176074 -0.000000000022 0.000000000000 -0.000000000000 -0.000002506053 -0.000000007472 -0.000003518881 0.999999999991
28.533000000000 -0.000078322127 -0.000000632190 -0.000000176074 -0.000000000022 -0.000000000001 0.000000000000 -0.000002506053 -0.000000007972 -0.000003519497 0.999999999991
28.538000000000 -0.000078322127 -0.000000632217 -0.000000176074 -0.000000000022 0.000000000000 0.000000000000 -0.000002506053 -0.000000008471 -0.000003520112 0.999999999991
28.543000000000 -0.000078322127 -0.000000632069 -0.000000176074 -0.000000000022 -0.000000000001 -0.000000000000 -0.000002506053 -0.000000008971 -0.000003520728 0.999999999991
28.548000000000 -0.000078322127 -0.000000631747 -0.000000176074 -0.000000000022 0.000000000001 -0.000000000000 -0.000002506053 -0.000000009470 -0.000003521343 0.999999999991
28.553000000000 -0.000078322127 -0.000000631251 -0.000000176074 -0.000000000021 0.000000000000 0.000000000000 -0.000002506053 -0.000000009968 -0.000003521959 0.999999999991
28.558000000000 -0.000078322127 -0.000000630581 -0.000000176074 -0.000000000021 -0.000000000001 -0.000000000000 -0.000002506053 -0.000000010465 -0.000003522575 0.999999999991
28.563000000000 -0.000078322127 -0.000000629738 -0.000000176074 -0.000000000021 0.000000000000 0.000000000000 -0.000002506053 -0.000000010959 -0.000003523190 0.999999999991
28.568000000000 -0.000078322127 -0.000000628723 -0.000000176074 -0.000000000021 0.000000000000 -0.000000000000 -0.000002506053 -0.000000011451 -0.000003523806 0.999999999991
28.573000000000 -0.000078322127 -0.000000627536 -0.000000176074 -0.000000000020 0.000000000000 -0.000000000000 -0.000002506053 -0.000000011941 -0.000003524422 0.999999999991
28.578000000000 -0.000078322127 -0.000000626178 -0.000000176074 -0.000000000020 -0.000000000001 0.000000000000 -0.000002506053 -0.000000012427 -0.000003525037 0.999999999991
28.583000000000 -0.000078322127 -0.000000624652 -0.000000176074 -0.000000000020 0.000000000001 -0.000000000000 -0.000002506053 -0.000000012909 -0.000003525653 0.999999999991
28.588000000000 -0.000078322127 -0.000000622958 -0.000000176074 -0.000000000019 -0.000000000001 0.000000000000 -0.000002506053 -0.000000013388 -0.000003526268 0.999999999991
28.593000000000 -0.000078322127 -0.000000621097 -0.000000176074 -0.000000000019 -0.000000000000 0.000000000000 -0.000002506053 -0.000000013862 -0.000003526884 0.999999999991
28.598000000000 -0.000078322127 -0.000000619071 -0.000000176074 -0.000000000019 0.000000000000 -0.000000000000 -0.000002506053 -0.000000014331 -0.000003527500 0.999999999991
28.603000000000 -0.000078322127 -0.000000616883 -0.000000176074 -0.000000000018 0.000000000000 0.000000000000 -0.000002506053 -0.000000014795 -0.000003528115 0.999999999991
28.608000000000 -0.000078322127 -0.000000614533 -0.000000176074 -0.000000000018 -0.000000000000 -0.000000000000 -0.000002506053 -0.000000015253 -0.000003528731 0.999999999991
28.613000000000 -0.000078322127 -0.000000612024 -0.000000176074 -0.000000000017 0.000000000000 0.000000000000 -0.000002506053 -0.000000015705 -0.000003529347 0.999999999991
28.618000000000 -0.000078322127 -0.000000609358 -0.000000176075 -0.000000000017 0.000000000000 -0.000000000000 -0.000002506053 -0.000000016150 -0.000003529962 0.999999999991
28.623000000000 -0.000078322127 -0.000000606538 -0.000000176075 -0.000000000017 0.000000000000 -0.000000000000 -0.000002506053 -0.000000016589 -0.000003530578 0.999999999991
28.628000000000 -0.000078322127 -0.000000603565 -0.000000176075 -0.000000000016 -0.000000000001 0.000000000001 -0.000002506053 -0.000000017020 -0.000003531193 0.999999999991
28.633000000000 -0.000078322127 -0.000000600444 -0.000000176075 -0.000000000016 0.000000000001 -0.000000000001 -0.000002506053 -0.000000017443 -0.000003531809 0.999999999991
28.638000000000 -0.000078322127 -0.000000597175 -0.000000176075 -0.000000000015 -0.000000000001 0.000000000000 -0.000002506053 -0.000000017859 -0.000003532425 0.999999999991
28.643000000000 -0.000078322127 -0.000000593762 -0.000000176075 -0.000000000015 0.000000000000 0.000000000000 -0.000002506053 -0.000000018266 -0.000003533040 0.999999999991
28.648000000000 -0.000078322127 -0.000000590209 -0.000000176075 -0.000000000014 0.000000000000 0.000000000000 -0.000002506053 -0.000000018665 -0.000003533656 0.999999999991
28.653000000000 -0.000078322127 -0.000000586517 -0.000000176074 -0.000000000014 0.000000000001 -0.000000000000 -0.000002506053 -0.000000019054 -0.000003534271 0.999999999991
28.658000000000 -0.000078322127 -0.000000582691 -0.000000176074 -0.000000000013 -0.000000000002 0.000000000001 -0.000002506053 -0.000000019434 -0.000003534887 0.999999999991
28.663000000000 -0.000078322127 -0.000000578734 -0.000000176074 -0.000000000013 -0.000000000001 -0.000000000001 -0.000002506053 -0.000000019804 -0.000003535503 0.999999999991
28.668000000000 -0.000078322127 -0.000000574649 -0.000000176074 -0.000000000012 -0.000000000001 0.000000000000 -0.000002506053 -0.000000020164 -0.000003536118 0.999999999991
28.673000000000 -0.000078322127 -0.000000570439 -0.000000176074 -0.000000000012 -0.000000000000 0.000000000000 -0.000002506053 -0.000000020514 -0.000003536734 0.999999999991
28.678000000000 -0.000078322127 -0.000000566109 -0.000000176074 -0.000000000011 -0.000000000001 -0.000000000001 -0.000002506053 -0.000000020853 -0.000003537350 0.999999999991
28.683000000000 -0.000078322127 -0.000000561662 -0.000000176074 -0.000000000010 -0.000000000000 0.000000000000 -0.000002506053 -0.000000021181 -0.000003537965 0.999999999991
28.688000000000 -0.000078322126 -0.000000557103 -0.000000176074 -0.000000000010 0.000000000001 -0.000000000000 -0.000002506053 -0.000000021497 -0.000003538581 0.999999999991
28.693000000000 -0.000078322126 -0.000000552434 -0.000000176074 -0.000000000009 -0.000000000000 0.000000000000 -0.000002506053 -0.000000021802 -0.000003539196 0.999999999991
28.698000000000 -0.000078322126 -0.000000547660 -0.000000176074 -0.000000000009 0.000000000001 -0.000000000000 -0.000002506053 -0.000000022096 -0.000003539812 0.999999999991
28.703000000000 -0.000078322126 -0.000000542786 -0.000000176074 -0.000000000008 -0.000000000001 0.000000000000 -0.000002506053 -0.000000022377 -0.000003540428 0.999999999991
28.708000000000 -0.000078322126 -0.000000537815 -0.000000176074 -0.000000000007 0.000000000001 -0.000000000000 -0.000002506053 -0.000000022646 -0.000003541043 0.999999999991
28.713000000000 -0.000078322126 -0.000000532752 -0.000000176074 -0.000000000007 0.000000000000 -0.000000000000 -0.000002506053 -0.000000022902 -0.000003541659 0.999999999991
28.718000000000 -0.000078322126 -0.000000527602 -0.000000176074 -0.000000000006 0.000000000000 0.000000000000 -0.000002506053 -0.000000023146 -0.000003542274 0.999999999991
28.723000000000 -0.000078322126 -0.000000522368 -0.000000176073 -0.000000000006 0.000000000001 0.000000000000 -0.000002506053 -0.000000023376 -0.000003542890 0.999999999991
28.728000000000 -0.000078322126 -0.000000517056 -0.000000176073 -0.000000000005 -0.000000000000 0.000000000000 -0.000002506053 -0.000000023593 -0.000003543506 0.999999999991
28.733000000000 -0.000078322126 -0.000000511669 -0.000000176073 -0.000000000004 -0.000000000000 -0.000000000000 -0.000002506053 -0.000000023797 -0.000003544121 0.999999999991
28.738000000000 -0.000078322126 -0.000000506213 -0.000000176073 -0.000000000004 0.000000000001 0.000000000000 -0.000002506053 -0.000000023988 -0.000003544737 0.999999999991
28.743000000000 -0.000078322126 -0.000000500693 -0.000000176073 -0.000000000003 -0.000000000000 -0.000000000000 -0.000002506053 -0.000000024164 -0.000003545353 0.999999999991
28.748000000000 -0.000078322126 -0.000000495113 -0.000000176073 -0.000000000002 0.000000000000 -0.000000000000 -0.000002506053 -0.000000024327 -0.000003545968 0.999999999991
28.753000000000 -0.000078322126 -0.000000489478 -0.000000176073 -0.000000000002 0.000000000000 0.000000000000 -0.000002506053 -0.000000024476 -0.000003546584 0.999999999991
28.758000000000 -0.000078322125 -0.000000483794 -0.000000176072 -0.000000000001 0.000000000001 -0.000000000000 -0.000002506053 -0.000000024610 -0.000003547199 0.999999999991
28.763000000000 -0.000078322125 -0.000000478064 -0.000000176072 -0.000000000000 -0.000000000001 0.000000000000 -0.000002506053 -0.000000024730 -0.000003547815 0.999999999991
28.768000000000 -0.000078322125 -0.000000472294 -0.000000176072 0.000000000000 0.000000000000 -0.000000000000 -0.000002506053 -0.000000024836 -0.000003548431 0.999999999991
28.773000000000 -0.000078322125 -0.000000466489 -0.000000176072 0.000000000001 -0.000000000001 -0.000000000000 -0.000002506053 -0.000000024928 -0.000003549046 0.999999999991
28.778000000000 -0.000078322125 -0.000000460655 -0.000000176072 0.000000000002 -0.000000000001 0.000000000000 -0.000002506053 -0.000000025005 -0.000003549662 0.999999999991
28.783000000000 -0.000078322125 -0.000000454796 -0.000000176071 0.000000000002 -0.000000000001 0.000000000000 -0.000002506053 -0.000000025067 -0.000003550277 0.999999999991
28.788000000000 -0.000078322125 -0.000000448917 -0.000000176071 0.000000000003 -0.000000000000 -0.000000000000 -0.000002506053 -0.000000025114 -0.000003550893 0.999999999991
28.793000000000 -0.000078322125 -0.000000443023 -0.000000176071 0.000000000004 -0.000000000000 0.000000000000 -0.000002506053 -0.000000025147 -0.000003551509 0.999999999991
28.798000000000 -0.000078322125 -0.000000437120 -0.000000176071 0.000000000004 -0.000000000000 0.000000000000 -0.000002506053 -0.000000025165 -0.000003552124 0.999999999991
28.803000000000 -0.000078322125 -0.000000431213 -0.000000176070 0.000000000005 -0.000000000000 -0.000000000000 -0.000002506053 -0.000000025168 -0.000003552740 0.999999999991
28.808000000000 -0.000078322125 -0.000000425307 -0.000000176070 0.000000000005 0.000000000001 0.000000000000 -0.000002506053 -0.000000025157 -0.000003553355 0.999999999991
28.813000000000 -0.000078322125 -0.000000419407 -0.000000176070 0.000000000006 0.000000000000 0.000000000000 -0.000002506053 -0.000000025131 -0.000003553971 0.999999999991
28.818000000000 -0.000078322124 -0.000000413518 -0.000000176070 0.000000000007 -0.000000000000 -0.000000000000 -0.000002506053 -0.000000025090 -0.000003554587 0.999999999991
28.823000000000 -0.000078322124 -0.000000407645 -0.000000176069 0.000000000007 0.000000000001 0.000000000000 -0.000002506053 -0.000000025034 -0.000003555202 0.999999999991
28.828000000000 -0.000078322124 -0.000000401794 -0.000000176069 0.000000000008 -0.000000000000 0.000000000000 -0.000002506053 -0.000000024964 -0.000003555818 0.999999999991
28.833000000000 -0.000078322124 -0.000000395970 -0.000000176069 0.000000000009 -0.000000000000 0.000000000000 -0.000002506053 -0.000000024879 -0.000003556433 0.999999999991
28.838000000000 -0.000078322124 -0.000000390177 -0.000000176069 0.000000000009 0.000000000000 0.000000000000 -0.000002506053 -0.000000024779 -0.000003557049 0.999999999991
28.843000000000 -0.000078322124 -0.000000384421 -0.000000176068 0.000000000010 0.000000000001 -0.000000000000 -0.000002506053 -0.000000024666 -0.000003557665 0.999999999991
28.848000000000 -0.000078322124 -0.000000378707 -0.000000176068 0.000000000010 0.000000000000 0.000000000000 -0.000002506053 -0.000000024537 -0.000003558280 0.999999999991
28.853000000000 -0.000078322124 -0.000000373039 -0.000000176068 0.000000000011 0.000000000000 -0.000000000000 -0.000002506053 -0.000000024395 -0.000003558896 0.999999999991
28.858000000000 -0.000078322124 -0.000000367423 -0.000000176067 0.000000000011 -0.000000000001 -0.000000000000 -0.000002506053 -0.000000024239 -0.000003559511 0.999999999991
28.863000000000 -0.000078322124 -0.000000361864 -0.000000176067 0.000000000012 0.000000000000 0.000000000000 -0.000002506053 -0.000000024068 -0.000003560127 0.999999999991
28.868000000000 -0.000078322124 -0.000000356366 -0.000000176067 0.000000000012 -0.000000000001 -0.000000000000 -0.000002506053 -0.000000023884 -0.000003560743 0.999999999991
28.873000000000 -0.000078322124 -0.000000350935 -0.000000176066 0.000000000013 -0.000000000000 -0.000000000000 -0.000002506053 -0.000000023686 -0.000003561358 0.999999999991
28.878000000000 -0.000078322123 -0.000000345574 -0.000000176066 0.000000000013 -0.000000000001 0.000000000000 -0.000002506053 -0.000000023475 -0.000003561974 0.999999999991
28.883000000000 -0.000078322123 -0.000000340289 -0.000000176066 0.000000000014 0.000000000001 -0.000000000000 -0.000002506053 -0.000000023250 -0.000003562589 0.999999999991
28.888000000000 -0.000078322123 -0.000000335084 -0.000000176065 0.000000000014 -0.000000000001 -0.000000000000 -0.000002506053 -0.000000023012 -0.000003563205 0.999999999991
28.893000000000 -0.000078322123 -0.000000329965 -0.000000176065 0.000000000015 0.000000000000 -0.000000000000 -0.000002506053 -0.000000022762 -0.000003563820 0.999999999991
28.898000000000 -0.000078322123 -0.000000324934 -0.000000176064 0.000000000015 -0.000000000000 0.000000000000 -0.000002506053 -0.000000022498 -0.000003564436 0.999999999991
28.903000000000 -0.000078322123 -0.000000319997 -0.000000176064 0.000000000016 0.000000000000 0.000000000001 -0.000002506053 -0.000000022223 -0.000003565052 0.999999999991
28.908000000000 -0.000078322123 -0.000000315158 -0.000000176064 0.000000000016 0.000000000001 -0.000000000000 -0.000002506053 -0.000000021935 -0.000003565667 0.999999999991
28.913000000000 -0.000078322123 -0.000000310422 -0.000000176063 0.000000000017 -0.000000000000 0.000000000000 -0.000002506053 -0.000000021635 -0.000003566283 0.999999999991
28.918000000000 -0.000078322123 -0.000000305791 -0.000000176063 0.000000000017 0.000000000000 -0.000000000000 -0.000002506053 -0.000000021323 -0.000003566898 0.999999999990
28.923000000000 -0.000078322123 -0.000000301271 -0.000000176062 0.000000000017 -0.000000000001 -0.000000000000 -0.000002506053 -0.000000021000 -0.000003567514 0.999999999990
28.928000000000 -0.000078322123 -0.000000296866 -0.000000176062 0.000000000018 0.000000000001 0.000000000000 -0.000002506053 -0.000000020666 -0.000003568130 0.999999999990
28.933000000000 -0.000078322123 -0.000000292578 -0.000000176062 0.000000000018 -0.000000000000 -0.000000000000 -0.000002506053 -0.000000020321 -0.000003568745 0.999999999990
28.938000000000 -0.000078322123 -0.000000288413 -0.000000176061 0.000000000019 0.000000000000 -0.000000000000 -0.000002506053 -0.000000019966 -0.000003569361 0.999999999990
28.943000000000 -0.000078322123 -0.000000284372 -0.000000176061 0.000000000019 0.000000000000 0.000000000000 -0.000002506053 -0.000000019600 -0.000003569976 0.999999999990
28.948000000000 -0.000078322123 -0.000000280462 -0.000000176060 0.000000000019 0.000000000000 0.000000000000 -0.000002506053 -0.000000019225 -0.000003570592 0.999999999990
28.953000000000 -0.000078322123 -0.000000276683 -0.000000176060 0.000000000019 -0.000000000001 -0.000000000001 -0.000002506053 -0.000000018839 -0.000003571207 0.999999999990
28.958000000000 -0.000078322122 -0.000000273040 -0.000000176059 0.000000000020 0.000000000001 0.000000000000 -0.000002506053 -0.000000018445 -0.000003571823 0.999999999990
28.963000000000 -0.000078322122 -0.000000269537 -0.000000176059 0.000000000020 -0.000000000001 -0.000000000000 -0.000002506053 -0.000000018042 -0.000003572439 0.999999999990
28.968000000000 -0.000078322122 -0.000000266175 -0.000000176059 0.000000000020 0.000000000000 0.000000000000 -0.000002506053 -0.000000017630 -0.000003573054 0.999999999990
28.973000000000 -0.000078322122 -0.000000262958 -0.000000176058 0.000000000020 -0.000000000001 -0.000000000000 -0.000002506053 -0.000000017210 -0.000003573670 0.999999999990
28.978000000000 -0.000078322122 -0.000000259889 -0.000000176058 0.000000000021 0.000000000000 0.000000000000 -0.000002506053 -0.000000016782 -0.000003574285 0.999999999990
28.983000000000 -0.000078322122 -0.000000256971 -0.000000176057 0.000000000021 0.000000000000 -0.000000000000 -0.000002506053 -0.000000016347 -0.000003574901 0.999999999990
28.988000000000 -0.000078322122 -0.000000254205 -0.000000176057 0.000000000021 -0.000000000001 -0.000000000000 -0.000002506053 -0.000000015904 -0.000003575516 0.999999999990
28.993000000000 -0.000078322122 -0.000000251595 -0.000000176056 0.000000000021 0.000000000001 0.000000000000 -0.000002506053 -0.000000015455 -0.000003576132 0.999999999990
28.998000000000 -0.000078322122 -0.000000249143 -0.000000176056 0.000000000021 -0.000000000001 0.000000000000 -0.000002506053 -0.000000015000 -0.000003576748 0.999999999990
29.003000000000 -0.000078322122 -0.000000246850 -0.000000176055 0.000000000021 -0.000000000001 -0.000000000000 -0.000002506053 -0.000000014538 -0.000003577363 0.999999999990
29.008000000000 -0.000078322122 -0.000000244719 -0.000000176055 0.000000000021 0.000000000001 0.000000000000 -0.000002506053 -0.000000014072 -0.000003577979 0.999999999990
29.013000000000 -0.000078322122 -0.000000242752 -0.000000176055 0.000000000021 -0.000000000001 0.000000000000 -0.000002506053 -0.000000013600 -0.000003578594 0.999999999990
29.018000000000 -0.000078322122 -0.000000240951 -0.000000176054 0.000000000022 0.000000000000 -0.000000000000 -0.000002506053 -0.000000013123 -0.000003579210 0.999999999990
29.023000000000 -0.000078322122 -0.000000239316 -0.000000176054 0.000000000022 -0.000000000000 -0.000000000000 -0.000002506053 -0.000000012643 -0.000003579825 0.999999999990
29.028000000000 -0.000078322122 -0.000000237850 -0.000000176053 0.000000000022 0.000000000000 0.000000000000 -0.000002506053 -0.000000012158 -0.000003580441 0.999999999990
29.033000000000 -0.000078322122 -0.000000236553 -0.000000176053 0.000000000022 -0.000000000000 -0.000000000000 -0.000002506053 -0.000000011670 -0.000003581056 0.999999999990
29.038000000000 -0.000078322122 -0.000000235427 -0.000000176052 0.000000000022 -0.000000000000 0.000000000000 -0.000002506053 -0.000000011179 -0.000003581672 0.999999999990
29.043000000000 -0.000078322122 -0.000000234473 -0.000000176052 0.000000000021 0.000000000000 -0.000000000000 -0.000002506053 -0.000000010686 -0.000003582288 0.999999999990
29.048000000000 -0.000078322122 -0.000000233692 -0.000000176051 0.000000000021 0.000000000001 -0.000000000000 -0.000002506053 -0.000000010190 -0.000003582903 0.999999999990
29.053000000000 -0.000078322122 -0.000000233083 -0.000000176051 0.000000000021 -0.000000000000 0.000000000000 -0.000002506053 -0.000000009693 -0.000003583519 0.999999999990
29.058000000000 -0.000078322122 -0.000000232649 -0.000000176050 0.000000000021 0.000000000000 -0.000000000000 -0.000002506053 -0.000000009194 -0.000003584134 0.999999999990
29.063000000000 -0.000078322122 -0.000000232389 -0.000000176050 0.000000000021 -0.000000000001 0.000000000000 -0.000002506053 -0.000000008695 -0.000003584750 0.999999999990
29.068000000000 -0.000078322122 -0.000000232303 -0.000000176049 0.000000000021 0.000000000000 0.000000000000 -0.000002506053 -0.000000008195 -0.000003585365 0.999999999990
29.073000000000 -0.000078322122 -0.000000232392 -0.000000176049 0.000000000021 -0.000000000000 -0.000000000000 -0.000002506053 -0.000000007695 -0.000003585981 0.999999999990
29.078000000000 -0.000078322122 -0.000000232656 -0.000000176049 0.000000000021 -0.000000000000 -0.000000000000 -0.000002506053 -0.000000007196 -0.000003586596 0.999999999990
29.083000000000 -0.000078322122 -0.000000233093 -0.000000176048 0.000000000020 0.000000000000 0.000000000000 -0.000002506053 -0.000000006697 -0.000003587212 0.999999999990
29.088000000000 -0.000078322122 -0.000000233704 -0.000000176048 0.000000000020 0.000000000001 -0.000000000000 -0.000002506053 -0.000000006200 -0.000003587828 0.999999999990
29.093000000000 -0.000078322122 -0.000000234489 -0.000000176047 0.000000000020 -0.000000000001 0.000000000000 -0.000002506053 -0.000000005705 -0.000003588443 0.999999999990
29.098000000000 -0.000078322122 -0.000000235446 -0.000000176047 0.000000000020 -0.000000000000 -0.000000000000 -0.000002506053 -0.000000005212 -0.000003589059 0.999999999990
29.103000000000 -0.000078322122 -0.000000236575 -0.000000176046 0.000000000019 -0.000000000000 -0.000000000000 -0.000002506053 -0.000000004722 -0.000003589674 0.999999999990
29.108000000000 -0.000078322122 -0.000000237875 -0.000000176046 0.000000000019 0.000000000000 0.000000000000 -0.000002506053 -0.000000004234 -0.000003590290 0.999999999990
29.113000000000 -0.000078322122 -0.000000239345 -0.000000176046 0.000000000019 0.000000000000 0.000000000000 -0.000002506053 -0.000000003751 -0.000003590905 0.999999999990
29.118000000000 -0.000078322122 -0.000000240982 -0.000000176045 0.000000000018 0.000000000000 -0.000000000000 -0.000002506053 -0.000000003271 -0.000003591521 0.999999999990
29.123000000000 -0.000078322122 -0.000000242787 -0.000000176045 0.000000000018 0.000000000001 -0.000000000000 -0.000002506053 -0.000000002795 -0.000003592136 0.999999999990
29.128000000000 -0.000078322122 -0.000000244757 -0.000000176044 0.000000000018 -0.000000000000 -0.000000000000 -0.000002506053 -0.000000002324 -0.000003592752 0.999999999990
29.133000000000 -0.000078322122 -0.000000246891 -0.000000176044 0.000000000017 -0.000000000001 0.000000000000 -0.000002506053 -0.000000001859 -0.000003593367 0.999999999990
29.138000000000 -0.000078322122 -0.000000249187 -0.000000176043 0.000000000017 0.000000000001 0.000000000000 -0.000002506053 -0.000000001399 -0.000003593983 0.999999999990
29.143000000000 -0.000078322122 -0.000000251642 -0.000000176043 0.000000000017 -0.000000000000 -0.000000000000 -0.000002506053 -0.000000000945 -0.000003594599 0.999999999990
29.148000000000 -0.000078322122 -0.000000254255 -0.000000176043 0.000000000016 -0.000000000001 -0.000000000000 -0.000002506053 -0.000000000497 -0.000003595214 0.999999999990
29.153000000000 -0.000078322122 -0.000000257023 -0.000000176042 0.000000000016 0.000000000000 0.000000000000 -0.000002506053 -0.000000000056 -0.000003595830 0.999999999990
29.158000000000 -0.000078322122 -0.000000259944 -0.000000176042 0.000000000015 0.000000000001 0.000000000000 -0.000002506053 0.000000000377 -0.000003596445 0.999999999990
29.163000000000 -0.000078322122 -0.000000263016 -0.000000176042 0.000000000015 0.000000000000 -0.000000000000 -0.000002506053 0.000000000804 -0.000003597061 0.999999999990
29.168000000000 -0.000078322122 -0.000000266235 -0.000000176041 0.000000000014 -0.000000000001 -0.000000000000 -0.000002506053 0.000000001222 -0.000003597676 0.999999999990
29.173000000000 -0.000078322122 -0.000000269600 -0.000000176041 0.000000000014 -0.000000000001 0.000000000000 -0.000002506053 0.000000001632 -0.000003598292 0.999999999990
29.178000000000 -0.000078322122 -0.000000273106 -0.000000176040 0.000000000013 0.000000000001 -0.000000000000 -0.000002506053 0.000000002033 -0.000003598907 0.999999999990
29.183000000000 -0.000078322123 -0.000000276751 -0.000000176040 0.000000000013 0.000000000000 -0.000000000000 -0.000002506053 0.000000002426 -0.000003599523 0.999999999990
29.188000000000 -0.000078322123 -0.000000280532 -0.000000176040 0.000000000012 -0.000000000000 0.000000000000 -0.000002506053 0.000000002809 -0.000003600138 0.999999999990
29.193000000000 -0.000078322123 -0.000000284445 -0.000000176039 0.000000000012 0.000000000000 -0.000000000001 -0.000002506053 0.000000003182 -0.000003600754 0.999999999990
29.198000000000 -0.000078322123 -0.000000288487 -0.000000176039 0.000000000011 -0.000000000000 0.000000000000 -0.000002506053 0.000000003546 -0.000003601369 0.999999999990
29.203000000000 -0.000078322123 -0.000000292655 -0.000000176039 0.000000000011 -0.000000000000 0.000000000000 -0.000002506053 0.000000003899 -0.000003601985 0.999999999990
29.208000000000 -0.000078322123 -0.000000296945 -0.000000176038 0.000000000010 0.000000000001 0.000000000000 -0.000002506053 0.000000004242 -0.000003602600 0.999999999990
29.213000000000 -0.000078322123 -0.000000301352 -0.000000176038 0.000000000010 -0.000000000001 0.000000000000 -0.000002506053 0.000000004573 -0.000003603216 0.999999999990
29.218000000000 -0.000078322123 -0.000000305874 -0.000000176038 0.000000000009 -0.000000000000 -0.000000000000 -0.000002506053 0.000000004894 -0.000003603832 0.999999999990
29.223000000000 -0.000078322123 -0.000000310506 -0.000000176037 0.000000000008 0.000000000001 0.000000000000 -0.000002506053 0.000000005203 -0.000003604447 0.999999999990
29.228000000000 -0.000078322123 -0.000000315245 -0.000000176037 0.000000000008 0.000000000000 -0.000000000000 -0.000002506053 0.000000005500 -0.000003605063 0.999999999990
29.233000000000 -0.000078322123 -0.000000320085 -0.000000176037 0.000000000007 -0.000000000001 0.000000000000 -0.000002506053 0.000000005785 -0.000003605678 0.999999999990
29.238000000000 -0.000078322123 -0.000000325024 -0.000000176037 0.000000000007 0.000000000000 -0.000000000000 -0.000002506053 0.000000006058 -0.000003606294 0.999999999990
29.243000000000 -0.000078322123 -0.000000330056 -0.000000176036 0.000000000006 -0.000000000000 0.000000000000 -0.000002506053 0.000000006319 -0.000003606909 0.999999999990
29.248000000000 -0.000078322123 -0.000000335177 -0.000000176036 0.000000000005 -0.000000000000 -0.000000000000 -0.000002506053 0.000000006567 -0.000003607525 0.999999999990
29.253000000000 -0.000078322123 -0.000000340383 -0.000000176036 0.000000000005 -0.000000000000 -0.000000000000 -0.000002506053 0.000000006802 -0.000003608140 0.999999999990
29.258000000000 -0.000078322124 -0.000000345669 -0.000000176036 0.000000000004 0.000000000001 0.000000000000 -0.000002506053 0.000000007023 -0.000003608756 0.999999999990
29.263000000000 -0.000078322124 -0.000000351031 -0.000000176035 0.000000000003 0.000000000000 -0.000000000000 -0.000002506053 0.000000007232 -0.000003609371 0.999999999990
29.268000000000 -0.000078322124 -0.000000356463 -0.000000176035 0.000000000003 -0.000000000000 0.000000000000 -0.000002506053 0.000000007427 -0.000003609987 0.999999999990
29.273000000000 -0.000078322124 -0.000000361962 -0.000000176035 0.000000000002 0.000000000000 -0.000000000000 -0.000002506053 0.000000007608 -0.000003610602 0.999999999990
29.278000000000 -0.000078322124 -0.000000367522 -0.000000176035 0.000000000002 0.000000000000 0.000000000000 -0.000002506053 0.000000007775 -0.000003611218 0.999999999990
29.283000000000 -0.000078322124 -0.000000373139 -0.000000176034 0.000000000001 -0.000000000001 0.000000000001 -0.000002506053 0.000000007929 -0.000003611833 0.999999999990
29.288000000000 -0.000078322124 -0.000000378807 -0.000000176034 0.000000000000 -0.000000000000 -0.000000000001 -0.000002506053 0.000000008068 -0.000003612449 0.999999999990
29.293000000000 -0.000078322124 -0.000000384521 -0.000000176034 -0.000000000000 0.000000000000 0.000000000000 -0.000002506053 0.000000008193 -0.000003613064 0.999999999990
29.298000000000 -0.000078322124 -0.000000390278 -0.000000176034 -0.000000000001 -0.000000000001 -0.000000000000 -0.000002506053 0.000000008304 -0.000003613680 0.999999999990
29.303000000000 -0.000078322124 -0.000000396071 -0.000000176034 -0.000000000002 0.000000000001 0.000000000001 -0.000002506053 0.000000008400 -0.000003614295 0.999999999990
29.308000000000 -0.000078322124 -0.000000401896 -0.000000176034 -0.000000000002 -0.000000000000 -0.000000000000 -0.000002506053 0.000000008482 -0.000003614911 0.999999999990
29.313000000000 -0.000078322124 -0.000000407747 -0.000000176033 -0.000000000003 -0.000000000000 0.000000000001 -0.000002506053 0.000000008549 -0.000003615527 0.999999999990
29.318000000000 -0.000078322125 -0.000000413619 -0.000000176033 -0.000000000004 0.000000000001 -0.000000000001 -0.000002506053 0.000000008601 -0.000003616142 0.999999999990
29.323000000000 -0.000078322125 -0.000000419508 -0.000000176033 -0.000000000004 0.000000000001 -0.000000000000 -0.000002506053 0.000000008639 -0.000003616758 0.999999999990
29.328000000000 -0.000078322125 -0.000000425408 -0.000000176033 -0.000000000005 -0.000000000002 0.000000000000 -0.000002506053 0.000000008662 -0.000003617373 0.999999999990
29.333000000000 -0.000078322125 -0.000000431314 -0.000000176033 -0.000000000006 0.000000000000 -0.000000000000 -0.000002506053 0.000000008670 -0.000003617989 0.999999999990
29.338000000000 -0.000078322125 -0.000000437220 -0.000000176033 -0.000000000006 0.000000000001 -0.000000000000 -0.000002506053 0.000000008664 -0.000003618604 0.999999999990
29.343000000000 -0.000078322125 -0.000000443123 -0.000000176033 -0.000000000007 -0.000000000000 -0.000000000000 -0.000002506053 0.000000008643 -0.000003619220 0.999999999990
29.348000000000 -0.000078322125 -0.000000449015 -0.000000176032 -0.000000000007 -0.000000000001 0.000000000000 -0.000002506053 0.000000008606 -0.000003619835 0.999999999990
29.353000000000 -0.000078322125 -0.000000454894 -0.000000176032 -0.000000000008 -0.000000000000 -0.000000000001 -0.000002506053 0.000000008556 -0.000003620451 0.999999999990
29.358000000000 -0.000078322125 -0.000000460752 -0.000000176032 -0.000000000009 0.000000000000 0.000000000000 -0.000002506053 0.000000008490 -0.000003621066 0.999999999990
29.363000000000 -0.000078322125 -0.000000466585 -0.000000176032 -0.000000000009 0.000000000000 -0.000000000001 -0.000002506053 0.000000008410 -0.000003621682 0.999999999990
29.368000000000 -0.000078322125 -0.000000472389 -0.000000176032 -0.000000000010 -0.000000000000 0.000000000000 -0.000002506053 0.000000008316 -0.000003622297 0.999999999990
29.373000000000 -0.000078322125 -0.000000478157 -0.000000176032 -0.000000000010 0.000000000000 0.000000000000 -0.000002506053 0.000000008207 -0.000003622913 0.999999999990
29.378000000000 -0.000078322126 -0.000000483886 -0.000000176032 -0.000000000011 0.000000000001 0.000000000000 -0.000002506053 0.000000008083 -0.000003623528 0.999999999990
29.383000000000 -0.000078322126 -0.000000489569 -0.000000176032 -0.000000000012 -0.000000000001 0.000000000000 -0.000002506053 0.000000007946 -0.000003624144 0.999999999990
29.388000000000 -0.000078322126 -0.000000495202 -0.000000176032 -0.000000000012 0.000000000001 -0.000000000000 -0.000002506053 0.000000007794 -0.000003624759 0.999999999990
29.393000000000 -0.000078322126 -0.000000500781 -0.000000176032 -0.000000000013 -0.000000000001 -0.000000000000 -0.000002506053 0.000000007628 -0.000003625375 0.999999999990
29.398000000000 -0.000078322126 -0.000000506299 -0.000000176032 -0.000000000013 -0.000000000001 0.000000000000 -0.000002506053 0.000000007449 -0.000003625990 0.999999999990
29.403000000000 -0.000078322126 -0.000000511753 -0.000000176032 -0.000000000014 0.000000000001 0.000000000000 -0.000002506053 0.000000007255 -0.000003626606 0.999999999990
29.408000000000 -0.000078322126 -0.000000517138 -0.000000176032 -0.000000000014 0.000000000000 -0.000000000000 -0.000002506053 0.000000007048 -0.000003627221 0.999999999990
29.413000000000 -0.000078322126 -0.000000522448 -0.000000176032 -0.000000000015 -0.000000000000 0.000000000000 -0.000002506053 0.000000006828 -0.000003627837 0.999999999990
29.418000000000 -0.000078322126 -0.000000527680 -0.000000176032 -0.000000000015 0.000000000000 -0.000000000000 -0.000002506053 0.000000006595 -0.000003628452 0.999999999990
29.423000000000 -0.000078322126 -0.000000532828 -0.000000176032 -0.000000000016 -0.000000000001 -0.000000000000 -0.000002506053 0.000000006349 -0.000003629068 0.999999999990
29.428000000000 -0.000078322126 -0.000000537889 -0.000000176032 -0.000000000016 0.000000000001 0.000000000000 -0.000002506053 0.000000006089 -0.000003629683 0.999999999990
29.433000000000 -0.000078322126 -0.000000542857 -0.000000176032 -0.000000000017 0.000000000000 -0.000000000000 -0.000002506053 0.000000005818 -0.000003630299 0.999999999990
29.438000000000 -0.000078322126 -0.000000547729 -0.000000176032 -0.000000000017 0.000000000001 0.000000000000 -0.000002506053 0.000000005534 -0.000003630914 0.999999999990
29.443000000000 -0.000078322127 -0.000000552500 -0.000000176032 -0.000000000018 -0.000000000001 -0.000000000000 -0.000002506053 0.000000005238 -0.000003631530 0.999999999990
29.448000000000 -0.000078322127 -0.000000557166 -0.000000176032 -0.000000000018 0.000000000000 0.000000000000 -0.000002506053 0.000000004930 -0.000003632146 0.999999999990
29.453000000000 -0.000078322127 -0.000000561723 -0.000000176032 -0.000000000018 -0.000000000000 0.000000000000 -0.000002506053 0.000000004611 -0.000003632761 0.999999999990
29.458000000000 -0.000078322127 -0.000000566167 -0.000000176032 -0.000000000019 0.000000000001 0.000000000000 -0.000002506053 0.000000004281 -0.000003633377 0.999999999990
29.463000000000 -0.000078322127 -0.000000570494 -0.000000176032 -0.000000000019 -0.000000000000 -0.000000000000 -0.000002506053 0.000000003940 -0.000003633992 0.999999999990
29.468000000000 -0.000078322127 -0.000000574700 -0.000000176032 -0.000000000019 -0.000000000000 0.000000000000 -0.000002506053 0.000000003588 -0.000003634608 0.999999999990
29.473000000000 -0.000078322127 -0.000000578782 -0.000000176032 -0.000000000020 -0.000000000000 0.000000000000 -0.000002506053 0.000000003225 -0.000003635223 0.999999999990
29.478000000000 -0.000078322127 -0.000000582737 -0.000000176032 -0.000000000020 -0.000000000000 0.000000000000 -0.000002506053 0.000000002853 -0.000003635839 0.999999999990
29.483000000000 -0.000078322127 -0.000000586559 -0.000000176032 -0.000000000020 0.000000000000 -0.000000000000 -0.000002506053 0.000000002471 -0.000003636454 0.999999999990
29.488000000000 -0.000078322127 -0.000000590248 -0.000000176032 -0.000000000021 -0.000000000001 -0.000000000000 -0.000002506053 0.000000002080 -0.000003637070 0.999999999990
29.493000000000 -0.000078322127 -0.000000593798 -0.000000176032 -0.000000000021 0.000000000001 0.000000000001 -0.000002506053 0.000000001679 -0.000003637685 0.999999999990
29.498000000000 -0.000078322127 -0.000000597207 -0.000000176032 -0.000000000021 0.000000000000 -0.000000000000 -0.000002506053 0.000000001270 -0.000003638301 0.999999999990
29.503000000000 -0.000078322127 -0.000000600472 -0.000000176032 -0.000000000021 -0.000000000000 0.000000000000 -0.000002506053 0.000000000853 -0.000003638916 0.999999999990
29.508000000000 -0.000078322127 -0.000000603591 -0.000000176032 -0.000000000022 0.000000000001 0.000000000000 -0.000002506053 0.000000000428 -0.000003639532 0.999999999990
29.513000000000 -0.000078322127 -0.000000606560 -0.000000176033 -0.000000000022 0.000000000000 -0.000000000000 -0.000002506053 -0.000000000005 -0.000003640147 0.999999999990
29.518000000000 -0.000078322127 -0.000000609376 -0.000000176033 -0.000000000022 0.000000000000 -0.000000000001 -0.000002506053 -0.000000000445 -0.000003640763 0.999999999990
29.523000000000 -0.000078322127 -0.000000612038 -0.000000176033 -0.000000000022 0.000000000001 0.000000000001 -0.000002506053 -0.000000000892 -0.000003641378 0.999999999990
29.528000000000 -0.000078322128 -0.000000614543 -0.000000176033 -0.000000000022 -0.000000000001 -0.000000000000 -0.000002506053 -0.000000001345 -0.000003641994 0.999999999990
29.533000000000 -0.000078322128 -0.000000616889 -0.000000176033 -0.000000000022 0.000000000001 0.000000000000 -0.000002506053 -0.000000001805 -0.000003642609 0.999999999990
29.538000000000 -0.000078322128 -0.000000619074 -0.000000176033 -0.000000000022 -0.000000000000 -0.000000000001 -0.000002506053 -0.000000002270 -0.000003643225 0.999999999990
29.543000000000 -0.000078322128 -0.000000621096 -0.000000176033 -0.000000000022 -0.000000000001 0.000000000000 -0.000002506053 -0.000000002740 -0.000003643840 0.999999999990
29.548000000000 -0.000078322128 -0.000000622953 -0.000000176033 -0.000000000023 0.000000000001 0.000000000000 -0.000002506053 -0.000000003215 -0.000003644456 0.999999999990
29.553000000000 -0.000078322128 -0.000000624644 -0.000000176033 -0.000000000023 -0.000000000001 -0.000000000000 -0.000002506053 -0.000000003694 -0.000003645071 0.999999999990
29.558000000000 -0.000078322128 -0.000000626166 -0.000000176033 -0.000000000023 -0.000000000001 -0.000000000000 -0.000002506053 -0.000000004177 -0.000003645687 0.999999999990
29.563000000000 -0.000078322128 -0.000000627519 -0.000000176033 -0.000000000023 0.000000000001 0.000000000000 -0.000002506053 -0.000000004664 -0.000003646302 0.999999999990
29.568000000000 -0.000078322128 -0.000000628702 -0.000000176033 -0.000000000023 -0.000000000000 0.000000000000 -0.000002506053 -0.000000005154 -0.000003646918 0.999999999990
29.573000000000 -0.000078322128 -0.000000629714 -0.000000176034 -0.000000000022 0.000000000000 -0.000000000000 -0.000002506053 -0.000000005647 -0.000003647533 0.999999999990
29.578000000000 -0.000078322128 -0.000000630553 -0.000000176034 -0.000000000022 -0.000000000000 -0.000000000000 -0.000002506053 -0.000000006142 -0.000003648149 0.999999999990
29.583000000000 -0.000078322128 -0.000000631219 -0.000000176034 -0.000000000022 0.000000000001 0.000000000000 -0.000002506053 -0.000000006639 -0.000003648765 0.999999999990
29.588000000000 -0.000078322128 -0.000000631711 -0.000000176034 -0.000000000022 -0.000000000000 -0.000000000001 -0.000002506053 -0.000000007137 -0.000003649380 0.999999999990
29.593000000000 -0.000078322128 -0.000000632029 -0.000000176034 -0.000000000022 0.000000000000 0.000000000000 -0.000002506053 -0.000000007636 -0.000003649996 0.999999999990
29.598000000000 -0.000078322128 -0.000000632173 -0.000000176034 -0.000000000022 -0.000000000000 0.000000000000 -0.000002506053 -0.000000008136 -0.000003650611 0.999999999990
29.603000000000 -0.000078322128 -0.000000632142 -0.000000176034 -0.000000000022 -0.000000000000 -0.000000000000 -0.000002506053 -0.000000008636 -0.000003651227 0.999999999990
29.608000000000 -0.000078322128 -0.000000631937 -0.000000176034 -0.000000000022 -0.000000000000 0.000000000000 -0.000002506053 -0.000000009135 -0.000003651842 0.999999999990
29.613000000000 -0.000078322128 -0.000000631557 -0.000000176034 -0.000000000021 0.000000000000 -0.000000000000 -0.000002506053 -0.000000009634 -0.000003652458 0.999999999990
29.618000000000 -0.000078322128 -0.000000631004 -0.000000176034 -0.000000000021 -0.000000000000 -0.000000000000 -0.000002506053 -0.000000010132 -0.000003653073 0.999999999990
29.623000000000 -0.000078322128 -0.000000630277 -0.000000176034 -0.000000000021 -0.000000000001 0.000000000000 -0.000002506053 -0.000000010628 -0.000003653689 0.999999999990
29.628000000000 -0.000078322128 -0.000000629377 -0.000000176034 -0.000000000021 0.000000000001 0.000000000000 -0.000002506053 -0.000000011121 -0.000003654304 0.999999999990
29.633000000000 -0.000078322128 -0.000000628305 -0.000000176034 -0.000000000020 -0.000000000000 0.000000000000 -0.000002506053 -0.000000011613 -0.000003654920 0.999999999990
29.638000000000 -0.000078322128 -0.000000627062 -0.000000176035 -0.000000000020 0.000000000000 -0.000000000000 -0.000002506053 -0.000000012101 -0.000003655535 0.999999999990
29.643000000000 -0.000078322128 -0.000000625649 -0.000000176035 -0.000000000020 -0.000000000000 0.000000000001 -0.000002506053 -0.000000012586 -0.000003656151 0.999999999990
29.648000000000 -0.000078322128 -0.000000624067 -0.000000176035 -0.000000000020 -0.000000000000 -0.000000000001 -0.000002506053 -0.000000013067 -0.000003656766 0.999999999990
29.653000000000 -0.000078322128 -0.000000622318 -0.000000176035 -0.000000000019 0.000000000001 0.000000000001 -0.000002506053 -0.000000013544 -0.000003657382 0.999999999990
29.658000000000 -0.000078322128 -0.000000620403 -0.000000176035 -0.000000000019 0.000000000000 -0.000000000001 -0.000002506053 -0.000000014017 -0.000003657997 0.999999999990
29.663000000000 -0.000078322128 -0.000000618323 -0.000000176035 -0.000000000019 -0.000000000000 -0.000000000000 -0.000002506053 -0.000000014484 -0.000003658613 0.999999999990
29.668000000000 -0.000078322128 -0.000000616082 -0.000000176035 -0.000000000018 -0.000000000000 0.000000000000 -0.000002506053 -0.000000014946 -0.000003659228 0.999999999990
29.673000000000 -0.000078322128 -0.000000613679 -0.000000176035 -0.000000000018 0.000000000000 0.000000000000 -0.000002506053 -0.000000015402 -0.000003659844 0.999999999990
29.678000000000 -0.000078322128 -0.000000611119 -0.000000176035 -0.000000000017 -0.000000000001 -0.000000000000 -0.000002506053 -0.000000015852 -0.000003660459 0.999999999990
29.683000000000 -0.000078322127 -0.000000608402 -0.000000176035 -0.000000000017 0.000000000001 -0.000000000000 -0.000002506053 -0.000000016295 -0.000003661075 0.999999999990
29.688000000000 -0.000078322127 -0.000000605531 -0.000000176035 -0.000000000016 -0.000000000000 -0.000000000000 -0.000002506053 -0.000000016731 -0.000003661690 0.999999999990
29.693000000000 -0.000078322127 -0.000000602509 -0.000000176035 -0.000000000016 -0.000000000001 -0.000000000000 -0.000002506053 -0.000000017160 -0.000003662306 0.999999999990
29.698000000000 -0.000078322127 -0.000000599339 -0.000000176035 -0.000000000016 0.000000000001 0.000000000000 -0.000002506053 -0.000000017581 -0.000003662921 0.999999999990
29.703000000000 -0.000078322127 -0.000000596022 -0.000000176035 -0.000000000015 0.000000000000 -0.000000000000 -0.000002506053 -0.000000017994 -0.000003663537 0.999999999990
29.708000000000 -0.000078322127 -0.000000592563 -0.000000176035 -0.000000000015 -0.000000000000 -0.000000000000 -0.000002506053 -0.000000018398 -0.000003664153 0.999999999990
29.713000000000 -0.000078322127 -0.000000588964 -0.000000176035 -0.000000000014 0.000000000001 0.000000000000 -0.000002506053 -0.000000018793 -0.000003664768 0.999999999990
29.718000000000 -0.000078322127 -0.000000585228 -0.000000176035 -0.000000000014 -0.000000000000 -0.000000000000 -0.000002506053 -0.000000019180 -0.000003665384 0.999999999990
29.723000000000 -0.000078322127 -0.000000581358 -0.000000176035 -0.000000000013 -0.000000000001 -0.000000000000 -0.000002506053 -0.000000019556 -0.000003665999 0.999999999990
29.728000000000 -0.000078322127 -0.000000577359 -0.000000176035 -0.000000000012 0.000000000001 0.000000000000 -0.000002506053 -0.000000019923 -0.000003666615 0.999999999990
29.733000000000 -0.000078322127 -0.000000573232 -0.000000176035 -0.000000000012 -0.000000000001 0.000000000000 -0.000002506053 -0.000000020280 -0.000003667230 0.999999999990
29.738000000000 -0.000078322127 -0.000000568983 -0.000000176035 -0.000000000011 -0.000000000000 -0.000000000000 -0.000002506053 -0.000000020626 -0.000003667846 0.999999999990
29.743000000000 -0.000078322127 -0.000000564614 -0.000000176035 -0.000000000011 -0.000000000001 -0.000000000000 -0.000002506053 -0.000000020962 -0.000003668461 0.999999999990
29.748000000000 -0.000078322127 -0.000000560130 -0.000000176035 -0.000000000010 -0.000000000000 0.000000000001 -0.000002506053 -0.000000021286 -0.000003669077 0.999999999990
29.753000000000 -0.000078322127 -0.000000555534 -0.000000176034 -0.000000000010 -0.000000000000 -0.000000000000 -0.000002506053 -0.000000021599 -0.000003669692 0.999999999990
29.758000000000 -0.000078322127 -0.000000550830 -0.000000176034 -0.000000000009 0.000000000000 0.000000000000 -0.000002506053 -0.000000021900 -0.000003670308 0.999999999990
29.763000000000 -0.000078322127 -0.000000546023 -0.000000176034 -0.000000000008 0.000000000001 -0.000000000000 -0.000002506053 -0.000000022189 -0.000003670923 0.999999999990
29.768000000000 -0.000078322127 -0.000000541117 -0.000000176034 -0.000000000008 0.000000000000 0.000000000000 -0.000002506053 -0.000000022466 -0.000003671539 0.999999999990
29.773000000000 -0.000078322126 -0.000000536115 -0.000000176034 -0.000000000007 -0.000000000001 -0.000000000001 -0.000002506053 -0.000000022731 -0.000003672154 0.999999999990
29.778000000000 -0.000078322126 -0.000000531023 -0.000000176034 -0.000000000007 0.000000000001 0.000000000000 -0.000002506053 -0.000000022983 -0.000003672770 0.999999999990
29.783000000000 -0.000078322126 -0.000000525845 -0.000000176034 -0.000000000006 0.000000000000 0.000000000000 -0.000002506053 -0.000000023223 -0.000003673385 0.999999999990
29.788000000000 -0.000078322126 -0.000000520585 -0.000000176034 -0.000000000005 -0.000000000000 -0.000000000001 -0.000002506053 -0.000000023449 -0.000003674001 0.999999999990
29.793000000000 -0.000078322126 -0.000000515247 -0.000000176034 -0.000000000005 0.000000000002 0.000000000000 -0.000002506053 -0.000000023662 -0.000003674616 0.999999999990
29.798000000000 -0.000078322126 -0.000000509838 -0.000000176034 -0.000000000004 -0.000000000000 -0.000000000001 -0.000002506053 -0.000000023861 -0.000003675232 0.999999999990
29.803000000000 -0.000078322126 -0.000000504360 -0.000000176033 -0.000000000003 -0.000000000000 0.000000000000 -0.000002506053 -0.000000024047 -0.000003675847 0.999999999990
29.808000000000 -0.000078322126 -0.000000498820 -0.000000176033 -0.000000000003 0.000000000000 0.000000000000 -0.000002506053 -0.000000024219 -0.000003676463 0.999999999990
29.813000000000 -0.000078322126 -0.000000493222 -0.000000176033 -0.000000000002 -0.000000000000 -0.000000000001 -0.000002506053 -0.000000024377 -0.000003677078 0.999999999990
29.818000000000 -0.000078322126 -0.000000487570 -0.000000176033 -0.000000000001 0.000000000000 0.000000000000 -0.000002506053 -0.000000024521 -0.000003677694 0.999999999990
29.823000000000 -0.000078322126 -0.000000481870 -0.000000176033 -0.000000000001 0.000000000000 0.000000000000 -0.000002506053 -0.000000024651 -0.000003678309 0.999999999990
29.828000000000 -0.000078322126 -0.000000476127 -0.000000176033 -0.000000000000 0.000000000001 0.000000000000 -0.000002506053 -0.000000024767 -0.000003678925 0.999999999990
29.833000000000 -0.000078322126 -0.000000470345 -0.000000176032 0.000000000001 0.000000000000 -0.000000000000 -0.000002506053 -0.000000024868 -0.000003679540 0.999999999990
29.838000000000 -0.000078322125 -0.000000464530 -0.000000176032 0.000000000001 -0.000000000001 -0.000000000001 -0.000002506053 -0.000000024954 -0.000003680156 0.999999999990
29.843000000000 -0.000078322125 -0.000000458687 -0.000000176032 0.000000000002 -0.000000000002 0.000000000000 -0.000002506053 -0.000000025026 -0.000003680771 0.999999999990
29.848000000000 -0.000078322125 -0.000000452821 -0.000000176032 0.000000000002 0.000000000000 0.000000000000 -0.000002506053 -0.000000025084 -0.000003681387 0.999999999990
29.853000000000 -0.000078322125 -0.000000446936 -0.000000176031 0.000000000003 -0.000000000001 0.000000000000 -0.000002506053 -0.000000025126 -0.000003682002 0.999999999990
29.858000000000 -0.000078322125 -0.000000441039 -0.000000176031 0.000000000004 0.000000000000 0.000000000000 -0.000002506053 -0.000000025154 -0.000003682618 0.999999999990
29.863000000000 -0.000078322125 -0.000000435135 -0.000000176031 0.000000000004 -0.000000000000 -0.000000000000 -0.000002506053 -0.000000025167 -0.000003683233 0.999999999990
29.868000000000 -0.000078322125 -0.000000429227 -0.000000176031 0.000000000005 0.000000000000 0.000000000000 -0.000002506053 -0.000000025166 -0.000003683849 0.999999999990
29.873000000000 -0.000078322125 -0.000000423323 -0.000000176030 0.000000000006 0.000000000000 -0.000000000000 -0.000002506053 -0.000000025150 -0.000003684464 0.999999999990
29.878000000000 -0.000078322125 -0.000000417426 -0.000000176030 0.000000000006 0.000000000001 0.000000000000 -0.000002506053 -0.000000025118 -0.000003685080 0.999999999990
29.883000000000 -0.000078322125 -0.000000411542 -0.000000176030 0.000000000007 -0.000000000000 -0.000000000001 -0.000002506053 -0.000000025073 -0.000003685695 0.999999999990
29.888000000000 -0.000078322125 -0.000000405676 -0.000000176030 0.000000000008 0.000000000000 0.000000000001 -0.000002506053 -0.000000025012 -0.000003686311 0.999999999990
29.893000000000 -0.000078322124 -0.000000399833 -0.000000176029 0.000000000008 0.000000000000 -0.000000000000 -0.000002506053 -0.000000024937 -0.000003686926 0.999999999990
29.898000000000 -0.000078322124 -0.000000394019 -0.000000176029 0.000000000009 0.000000000000 -0.000000000000 -0.000002506053 -0.000000024847 -0.000003687542 0.999999999990
29.903000000000 -0.000078322124 -0.000000388238 -0.000000176029 0.000000000009 0.000000000000 0.000000000000 -0.000002506053 -0.000000024743 -0.000003688157 0.999999999990
29.908000000000 -0.000078322124 -0.000000382495 -0.000000176028 0.000000000010 -0.000000000001 -0.000000000001 -0.000002506053 -0.000000024625 -0.000003688773 0.999999999990
29.913000000000 -0.000078322124 -0.000000376796 -0.000000176028 0.000000000010 0.000000000001 0.000000000000 -0.000002506053 -0.000000024492 -0.000003689388 0.999999999990
29.918000000000 -0.000078322124 -0.000000371145 -0.000000176028 0.000000000011 0.000000000000 -0.000000000000 -0.000002506053 -0.000000024345 -0.000003690004 0.999999999990
29.923000000000 -0.000078322124 -0.000000365547 -0.000000176027 0.000000000012 -0.000000000001 0.000000000000 -0.000002506053 -0.000000024184 -0.000003690619 0.999999999990
29.928000000000 -0.000078322124 -0.000000360008 -0.000000176027 0.000000000012 0.000000000001 -0.000000000000 -0.000002506053 -0.000000024009 -0.000003691235 0.999999999990
29.933000000000 -0.000078322124 -0.000000354531 -0.000000176027 0.000000000013 0.000000000000 0.000000000000 -0.000002506053 -0.000000023820 -0.000003691850 0.999999999990
29.938000000000 -0.000078322124 -0.000000349122 -0.000000176026 0.000000000013 -0.000000000002 0.000000000000 -0.000002506053 -0.000000023618 -0.000003692466 0.999999999990
29.943000000000 -0.000078322124 -0.000000343786 -0.000000176026 0.000000000014 -0.000000000000 -0.000000000001 -0.000002506053 -0.000000023402 -0.000003693081 0.999999999990
29.948000000000 -0.000078322124 -0.000000338528 -0.000000176026 0.000000000014 -0.000000000000 0.000000000000 -0.000002506053 -0.000000023173 -0.000003693697 0.999999999990
29.953000000000 -0.000078322124 -0.000000333350 -0.000000176025 0.000000000015 0.000000000000 0.000000000000 -0.000002506053 -0.000000022931 -0.000003694312 0.999999999990
29.958000000000 -0.000078322123 -0.000000328260 -0.000000176025 0.000000000015 -0.000000000001 -0.000000000000 -0.000002506053 -0.000000022676 -0.000003694928 0.999999999990
29.963000000000 -0.000078322123 -0.000000323259 -0.000000176025 0.000000000016 0.000000000000 0.000000000000 -0.000002506053 -0.000000022409 -0.000003695543 0.999999999990
29.968000000000 -0.000078322123 -0.000000318354 -0.000000176024 0.000000000016 0.000000000001 -0.000000000000 -0.000002506053 -0.000000022129 -0.000003696159 0.999999999990
29.973000000000 -0.000078322123 -0.000000313549 -0.000000176024 0.000000000016 0.000000000000 -0.000000000000 -0.000002506053 -0.000000021837 -0.000003696774 0.999999999990
29.978000000000 -0.000078322123 -0.000000308847 -0.000000176023 0.000000000017 0.000000000000 0.000000000000 -0.000002506053 -0.000000021533 -0.000003697390 0.999999999990
29.983000000000 -0.000078322123 -0.000000304252 -0.000000176023 0.000000000017 -0.000000000001 -0.000000000000 -0.000002506053 -0.000000021218 -0.000003698005 0.999999999990
29.988000000000 -0.000078322123 -0.000000299770 -0.000000176023 0.000000000018 0.000000000000 0.000000000000 -0.000002506053 -0.000000020891 -0.000003698621 0.999999999990
29.993000000000 -0.000078322123 -0.000000295403 -0.000000176022 0.000000000018 0.000000000000 -0.000000000000 -0.000002506053 -0.000000020554 -0.000003699236 0.999999999990
29.998000000000 -0.000078322123 -0.000000291155 -0.000000176022 0.000000000018 0.000000000000 0.000000000000 -0.000002506053 -0.000000020205 -0.000003699852 0.999999999990
30.003000000000 -0.000078322123 -0.000000287030 -0.000000176021 0.000000000019 0.000000000001 -0.000000000000 -0.000002506053 -0.000000019846 -0.000003700467 0.999999999990
30.008000000000 -0.000078322123 -0.000000283033 -0.000000176021 0.000000000019 -0.000000000000 0.000000000000 -0.000002506053 -0.000000019477 -0.000003701083 0.999999999990
30.013000000000 -0.000078322123 -0.000000279165 -0.000000176021 0.000000000019 0.000000000000 0.000000000001 -0.000002506053 -0.000000019099 -0.000003701698 0.999999999990
30.018000000000 -0.000078322123 -0.000000275431 -0.000000176020 0.000000000020 -0.000000000001 -0.000000000001 -0.000002506053 -0.000000018710 -0.000003702314 0.999999999990
30.023000000000 -0.000078322123 -0.000000271834 -0.000000176020 0.000000000020 0.000000000000 0.000000000000 -0.000002506053 -0.000000018313 -0.000003702929 0.999999999990
30.028000000000 -0.000078322123 -0.000000268377 -0.000000176019 0.000000000020 0.000000000000 -0.000000000000 -0.000002506053 -0.000000017907 -0.000003703544 0.999999999990
30.033000000000 -0.000078322123 -0.000000265062 -0.000000176019 0.000000000020 -0.000000000000 -0.000000000000 -0.000002506053 -0.000000017492 -0.000003704160 0.999999999990
30.038000000000 -0.000078322122 -0.000000261894 -0.000000176018 0.000000000020 -0.000000000000 -0.000000000000 -0.000002506053 -0.000000017069 -0.000003704775 0.999999999990
30.043000000000 -0.000078322122 -0.000000258874 -0.000000176018 0.000000000021 -0.000000000000 0.000000000001 -0.000002506053 -0.000000016639 -0.000003705391 0.999999999990
30.048000000000 -0.000078322122 -0.000000256006 -0.000000176017 0.000000000021 -0.000000000000 -0.000000000001 -0.000002506053 -0.000000016201 -0.000003706006 0.999999999990
30.053000000000 -0.000078322122 -0.000000253292 -0.000000176017 0.000000000021 -0.000000000002 0.000000000000 -0.000002506053 -0.000000015757 -0.000003706622 0.999999999990
30.058000000000 -0.000078322122 -0.000000250733 -0.000000176017 0.000000000021 -0.000000000001 0.000000000001 -0.000002506053 -0.000000015306 -0.000003707237 0.999999999990
30.063000000000 -0.000078322122 -0.000000248333 -0.000000176016 0.000000000021 0.000000000000 -0.000000000000 -0.000002506053 -0.000000014848 -0.000003707853 0.999999999990
30.068000000000 -0.000078322122 -0.000000246094 -0.000000176016 0.000000000021 0.000000000000 -0.000000000001 -0.000002506053 -0.000000014385 -0.000003708468 0.999999999990
30.073000000000 -0.000078322122 -0.000000244017 -0.000000176015 0.000000000021 -0.000000000001 0.000000000000 -0.000002506053 -0.000000013917 -0.000003709084 0.999999999990
30.078000000000 -0.000078322122 -0.000000242104 -0.000000176015 0.000000000021 0.000000000000 0.000000000000 -0.000002506053 -0.000000013443 -0.000003709699 0.999999999990
30.083000000000 -0.000078322122 -0.000000240357 -0.000000176014 0.000000000022 0.000000000000 -0.000000000000 -0.000002506053 -0.000000012965 -0.000003710315 0.999999999990
30.088000000000 -0.000078322122 -0.000000238777 -0.000000176014 0.000000000022 -0.000000000000 0.000000000000 -0.000002506053 -0.000000012483 -0.000003710930 0.999999999990
30.093000000000 -0.000078322122 -0.000000237367 -0.000000176013 0.000000000022 -0.000000000001 -0.000000000000 -0.000002506053 -0.000000011998 -0.000003711546 0.999999999990
30.098000000000 -0.000078322122 -0.000000236126 -0.000000176013 0.000000000022 0.000000000000 0.000000000000 -0.000002506053 -0.000000011509 -0.000003712161 0.999999999990
30.103000000000 -0.000078322122 -0.000000235057 -0.000000176012 0.000000000022 0.000000000000 -0.000000000000 -0.000002506053 -0.000000011017 -0.000003712776 0.999999999990
30.108000000000 -0.000078322122 -0.000000234160 -0.000000176012 0.000000000021 0.000000000000 0.000000000000 -0.000002506053 -0.000000010523 -0.000003713392 0.999999999990
30.113000000000 -0.000078322122 -0.000000233435 -0.000000176012 0.000000000021 0.000000000000 -0.000000000000 -0.000002506053 -0.000000010026 -0.000003714007 0.999999999990
30.118000000000 -0.000078322122 -0.000000232884 -0.000000176011 0.000000000021 -0.000000000001 -0.000000000000 -0.000002506053 -0.000000009528 -0.000003714623 0.999999999990
30.123000000000 -0.000078322122 -0.000000232507 -0.000000176011 0.000000000021 0.000000000000 0.000000000000 -0.000002506053 -0.000000009030 -0.000003715238 0.999999999990
30.128000000000 -0.000078322122 -0.000000232305 -0.000000176010 0.000000000021 0.000000000001 0.000000000000 -0.000002506053 -0.000000008530 -0.000003715854 0.999999999990
30.133000000000 -0.000078322122 -0.000000232276 -0.000000176010 0.000000000021 -0.000000000000 -0.000000000000 -0.000002506053 -0.000000008030 -0.000003716469 0.999999999990
30.138000000000 -0.000078322122 -0.000000232423 -0.000000176009 0.000000000021 0.000000000001 0.000000000000 -0.000002506053 -0.000000007530 -0.000003717085 0.999999999990
30.143000000000 -0.000078322122 -0.000000232743 -0.000000176009 0.000000000021 -0.000000000001 -0.000000000000 -0.000002506053 -0.000000007031 -0.000003717700 0.999999999990
30.148000000000 -0.000078322122 -0.000000233238 -0.000000176008 0.000000000020 0.000000000000 0.000000000000 -0.000002506053 -0.000000006533 -0.000003718316 0.999999999990
30.153000000000 -0.000078322122 -0.000000233907 -0.000000176008 0.000000000020 0.000000000000 -0.000000000000 -0.000002506053 -0.000000006037 -0.000003718931 0.999999999990
30.158000000000 -0.000078322122 -0.000000234748 -0.000000176007 0.000000000020 -0.000000000001 0.000000000000 -0.000002506053 -0.000000005542 -0.000003719546 0.999999999990
30.163000000000 -0.000078322122 -0.000000235762 -0.000000176007 0.000000000020 0.000000000000 -0.000000000000 -0.000002506053 -0.000000005050 -0.000003720162 0.999999999990
30.168000000000 -0.000078322122 -0.000000236947 -0.000000176007 0.000000000019 0.000000000000 0.000000000000 -0.000002506053 -0.000000004561 -0.000003720777 0.999999999990
30.173000000000 -0.000078322122 -0.000000238303 -0.000000176006 0.000000000019 0.000000000000 -0.000000000000 -0.000002506053 -0.000000004075 -0.000003721393 0.999999999990
30.178000000000 -0.000078322122 -0.000000239828 -0.000000176006 0.000000000019 -0.000000000001 -0.000000000000 -0.000002506053 -0.000000003592 -0.000003722008 0.999999999990
30.183000000000 -0.000078322122 -0.000000241521 -0.000000176005 0.000000000018 0.000000000000 0.000000000000 -0.000002506053 -0.000000003114 -0.000003722624 0.999999999990
30.188000000000 -0.000078322122 -0.000000243380 -0.000000176005 0.000000000018 -0.000000000001 0.000000000000 -0.000002506053 -0.000000002640 -0.000003723239 0.999999999990
30.193000000000 -0.000078322122 -0.000000245404 -0.000000176004 0.000000000018 0.000000000000 -0.000000000001 -0.000002506053 -0.000000002171 -0.000003723855 0.999999999990
30.198000000000 -0.000078322122 -0.000000247592 -0.000000176004 0.000000000017 0.000000000000 0.000000000001 -0.000002506053 -0.000000001707 -0.000003724470 0.999999999990
30.203000000000 -0.000078322122 -0.000000249940 -0.000000176004 0.000000000017 -0.000000000000 -0.000000000000 -0.000002506053 -0.000000001249 -0.000003725085 0.999999999990
30.208000000000 -0.000078322122 -0.000000252447 -0.000000176003 0.000000000016 -0.000000000000 -0.000000000000 -0.000002506053 -0.000000000797 -0.000003725701 0.999999999990
30.213000000000 -0.000078322122 -0.000000255112 -0.000000176003 0.000000000016 -0.000000000000 0.000000000000 -0.000002506053 -0.000000000351 -0.000003726316 0.999999999990
30.218000000000 -0.000078322122 -0.000000257931 -0.000000176002 0.000000000016 0.000000000000 -0.000000000000 -0.000002506053 0.000000000087 -0.000003726932 0.999999999990
30.223000000000 -0.000078322122 -0.000000260902 -0.000000176002 0.000000000015 -0.000000000001 -0.000000000000 -0.000002506053 0.000000000518 -0.000003727547 0.999999999990
30.228000000000 -0.000078322122 -0.000000264022 -0.000000176002 0.000000000015 0.000000000000 0.000000000000 -0.000002506053 0.000000000942 -0.000003728163 0.999999999990
30.233000000000 -0.000078322123 -0.000000267289 -0.000000176001 0.000000000014 0.000000000000 -0.000000000000 -0.000002506053 0.000000001358 -0.000003728778 0.999999999990
30.238000000000 -0.000078322123 -0.000000270701 -0.000000176001 0.000000000014 -0.000000000000 0.000000000001 -0.000002506053 0.000000001765 -0.000003729393 0.999999999990
30.243000000000 -0.000078322123 -0.000000274253 -0.000000176001 0.000000000013 0.000000000001 -0.000000000000 -0.000002506053 0.000000002163 -0.000003730009 0.999999999990
30.248000000000 -0.000078322123 -0.000000277943 -0.000000176000 0.000000000013 0.000000000002 -0.000000000000 -0.000002506053 0.000000002553 -0.000003730624 0.999999999990
30.253000000000 -0.000078322123 -0.000000281768 -0.000000176000 0.000000000012 0.000000000003 0.000000000000 -0.000002506053 0.000000002933 -0.000003731240 0.999999999990
30.258000000000 -0.000078322123 -0.000000285724 -0.000000176000 0.000000000012 0.000000000000 0.000000000000 -0.000002506053 0.000000003303 -0.000003731855 0.999999999990
30.263000000000 -0.000078322123 -0.000000289807 -0.000000175999 0.000000000011 -0.000000000000 0.000000000000 -0.000002506053 0.000000003663 -0.000003732471 0.999999999990
30.268000000000 -0.000078322123 -0.000000294016 -0.000000175999 0.000000000011 0.000000000000 0.000000000000 -0.000002506053 0.000000004013 -0.000003733086 0.999999999990
30.273000000000 -0.000078322123 -0.000000298344 -0.000000175999 0.000000000010 0.000000000000 -0.000000000001 -0.000002506053 0.000000004352 -0.000003733701 0.999999999990
30.278000000000 -0.000078322123 -0.000000302790 -0.000000175998 0.000000000009 0.000000000000 0.000000000001 -0.000002506053 0.000000004680 -0.000003734317 0.999999999990
30.283000000000 -0.000078322123 -0.000000307348 -0.000000175998 0.000000000009 -0.000000000001 -0.000000000000 -0.000002506053 0.000000004996 -0.000003734932 0.999999999990
30.288000000000 -0.000078322123 -0.000000312016 -0.000000175998 0.000000000008 0.000000000000 0.000000000001 -0.000002506053 0.000000005302 -0.000003735548 0.999999999990
30.293000000000 -0.000078322123 -0.000000316788 -0.000000175997 0.000000000008 -0.000000000000 -0.000000000000 -0.000002506053 0.000000005595 -0.000003736163 0.999999999990
30.298000000000 -0.000078322123 -0.000000321661 -0.000000175997 0.000000000007 -0.000000000001 0.000000000000 -0.000002506053 0.000000005876 -0.000003736779 0.999999999990
30.303000000000 -0.000078322123 -0.000000326631 -0.000000175997 0.000000000006 0.000000000001 -0.000000000000 -0.000002506053 0.000000006145 -0.000003737394 0.999999999990
30.308000000000 -0.000078322124 -0.000000331693 -0.000000175997 0.000000000006 -0.000000000001 0.000000000000 -0.000002506053 0.000000006402 -0.000003738009 0.999999999990
30.313000000000 -0.000078322124 -0.000000336842 -0.000000175996 0.000000000005 -0.000000000001 -0.000000000000 -0.000002506053 0.000000006645 -0.000003738625 0.999999999990
30.318000000000 -0.000078322124 -0.000000342075 -0.000000175996 0.000000000005 0.000000000000 0.000000000001 -0.000002506053 0.000000006876 -0.000003739240 0.999999999990
30.323000000000 -0.000078322124 -0.000000347386 -0.000000175996 0.000000000004 0.000000000000 -0.000000000000 -0.000002506053 0.000000007093 -0.000003739856 0.999999999990
30.328000000000 -0.000078322124 -0.000000352772 -0.000000175996 0.000000000003 -0.000000000002 -0.000000000000 -0.000002506053 0.000000007297 -0.000003740471 0.999999999990
30.333000000000 -0.000078322124 -0.000000358227 -0.000000175995 0.000000000003 0.000000000001 0.000000000000 -0.000002506053 0.000000007488 -0.000003741087 0.999999999990
30.338000000000 -0.000078322124 -0.000000363746 -0.000000175995 0.000000000002 -0.000000000000 -0.000000000000 -0.000002506053 0.000000007664 -0.000003741702 0.999999999990
30.343000000000 -0.000078322124 -0.000000369325 -0.000000175995 0.000000000001 -0.000000000001 -0.000000000000 -0.000002506053 0.000000007827 -0.000003742317 0.999999999990
30.348000000000 -0.000078322124 -0.000000374959 -0.000000175995 0.000000000001 -0.000000000000 0.000000000000 -0.000002506053 0.000000007976 -0.000003742933 0.999999999990
30.353000000000 -0.000078322124 -0.000000380643 -0.000000175995 0.000000000000 -0.000000000000 0.000000000000 -0.000002506053 0.000000008110 -0.000003743548 0.999999999990
30.358000000000 -0.000078322124 -0.000000386372 -0.000000175994 -0.000000000001 0.000000000000 0.000000000000 -0.000002506053 0.000000008231 -0.000003744164 0.999999999990
30.363000000000 -0.000078322124 -0.000000392141 -0.000000175994 -0.000000000001 0.000000000000 -0.000000000000 -0.000002506053 0.000000008337 -0.000003744779 0.999999999990
30.368000000000 -0.000078322125 -0.000000397945 -0.000000175994 -0.000000000002 -0.000000000000 0.000000000000 -0.000002506053 0.000000008428 -0.000003745395 0.999999999990
30.373000000000 -0.000078322125 -0.000000403778 -0.000000175994 -0.000000000003 0.000000000003 0.000000000000 -0.000002506053 0.000000008505 -0.000003746010 0.999999999990
30.378000000000 -0.000078322125 -0.000000409637 -0.000000175994 -0.000000000003 0.000000000000 -0.000000000000 -0.000002506053 0.000000008567 -0.000003746625 0.999999999990
30.383000000000 -0.000078322125 -0.000000415515 -0.000000175994 -0.000000000004 0.000000000001 0.000000000001 -0.000002506053 0.000000008615 -0.000003747241 0.999999999990
30.388000000000 -0.000078322125 -0.000000421408 -0.000000175993 -0.000000000005 -0.000000000001 -0.000000000000 -0.000002506053 0.000000008648 -0.000003747856 0.999999999990
30.393000000000 -0.000078322125 -0.000000427310 -0.000000175993 -0.000000000005 0.000000000001 -0.000000000000 -0.000002506053 0.000000008666 -0.000003748472 0.999999999990
30.398000000000 -0.000078322125 -0.000000433217 -0.000000175993 -0.000000000006 -0.000000000001 0.000000000000 -0.000002506053 0.000000008669 -0.000003749087 0.999999999990
30.403000000000 -0.000078322125 -0.000000439123 -0.000000175993 -0.000000000006 0.000000000000 -0.000000000000 -0.000002506053 0.000000008658 -0.000003749703 0.999999999990
30.408000000000 -0.000078322125 -0.000000445022 -0.000000175993 -0.000000000007 -0.000000000001 0.000000000000 -0.000002506053 0.000000008632 -0.000003750318 0.999999999990
30.413000000000 -0.000078322125 -0.000000450911 -0.000000175993 -0.000000000008 0.000000000000 -0.000000000000 -0.000002506053 0.000000008591 -0.000003750933 0.999999999990
30.418000000000 -0.000078322125 -0.000000456783 -0.000000175993 -0.000000000008 -0.000000000000 0.000000000000 -0.000002506053 0.000000008536 -0.000003751549 0.999999999990
30.423000000000 -0.000078322126 -0.000000462633 -0.000000175993 -0.000000000009 0.000000000000 -0.000000000000 -0.000002506053 0.000000008465 -0.000003752164 0.999999999990
30.428000000000 -0.000078322126 -0.000000468457 -0.000000175993 -0.000000000010 -0.000000000001 0.000000000000 -0.000002506053 0.000000008380 -0.000003752780 0.999999999990
30.433000000000 -0.000078322126 -0.000000474250 -0.000000175992 -0.000000000010 -0.000000000001 -0.000000000000 -0.000002506053 0.000000008281 -0.000003753395 0.999999999990
30.438000000000 -0.000078322126 -0.000000480006 -0.000000175992 -0.000000000011 0.000000000000 0.000000000000 -0.000002506053 0.000000008167 -0.000003754010 0.999999999990
30.443000000000 -0.000078322126 -0.000000485720 -0.000000175992 -0.000000000011 0.000000000000 -0.000000000000 -0.000002506053 0.000000008039 -0.000003754626 0.999999999990
30.448000000000 -0.000078322126 -0.000000491387 -0.000000175992 -0.000000000012 -0.000000000000 -0.000000000000 -0.000002506053 0.000000007897 -0.000003755241 0.999999999990
30.453000000000 -0.000078322126 -0.000000497002 -0.000000175992 -0.000000000012 0.000000000001 0.000000000001 -0.000002506053 0.000000007741 -0.000003755857 0.999999999990
30.458000000000 -0.000078322126 -0.000000502562 -0.000000175992 -0.000000000013 -0.000000000000 -0.000000000001 -0.000002506053 0.000000007570 -0.000003756472 0.999999999990
30.463000000000 -0.000078322126 -0.000000508059 -0.000000175992 -0.000000000013 0.000000000001 0.000000000001 -0.000002506053 0.000000007386 -0.000003757088 0.999999999990
30.468000000000 -0.000078322126 -0.000000513491 -0.000000175992 -0.000000000014 0.000000000001 0.000000000000 -0.000002506053 0.000000007188 -0.000003757703 0.999999999990
30.473000000000 -0.000078322126 -0.000000518851 -0.000000175992 -0.000000000014 0.000000000002 -0.000000000001 -0.000002506053 0.000000006977 -0.000003758318 0.999999999990
30.478000000000 -0.000078322126 -0.000000524136 -0.000000175992 -0.000000000015 -0.000000000000 0.000000000000 -0.000002506053 0.000000006753 -0.000003758934 0.999999999990
30.483000000000 -0.000078322127 -0.000000529341 -0.000000175992 -0.000000000015 0.000000000000 0.000000000000 -0.000002506053 0.000000006515 -0.000003759549 0.999999999990
30.488000000000 -0.000078322127 -0.000000534460 -0.000000175992 -0.000000000016 -0.000000000001 -0.000000000000 -0.000002506053 0.000000006264 -0.000003760165 0.999999999990
30.493000000000 -0.000078322127 -0.000000539491 -0.000000175992 -0.000000000016 0.000000000000 0.000000000000 -0.000002506053 0.000000006001 -0.000003760780 0.999999999990
30.498000000000 -0.000078322127 -0.000000544428 -0.000000175992 -0.000000000017 -0.000000000001 0.000000000000 -0.000002506053 0.000000005726 -0.000003761395 0.999999999990
30.503000000000 -0.000078322127 -0.000000549267 -0.000000175992 -0.000000000017 0.000000000000 -0.000000000000 -0.000002506053 0.000000005438 -0.000003762011 0.999999999990
30.508000000000 -0.000078322127 -0.000000554004 -0.000000175992 -0.000000000018 -0.000000000000 -0.000000000000 -0.000002506053 0.000000005138 -0.000003762626 0.999999999990
30.513000000000 -0.000078322127 -0.000000558634 -0.000000175992 -0.000000000018 -0.000000000001 0.000000000000 -0.000002506053 0.000000004826 -0.000003763242 0.999999999990
30.518000000000 -0.000078322127 -0.000000563154 -0.000000175992 -0.000000000018 0.000000000001 -0.000000000000 -0.000002506053 0.000000004504 -0.000003763857 0.999999999990
30.523000000000 -0.000078322127 -0.000000567560 -0.000000175992 -0.000000000019 -0.000000000001 0.000000000000 -0.000002506053 0.000000004170 -0.000003764473 0.999999999990
30.528000000000 -0.000078322127 -0.000000571848 -0.000000175992 -0.000000000019 0.000000000001 0.000000000000 -0.000002506053 0.000000003825 -0.000003765088 0.999999999990
30.533000000000 -0.000078322127 -0.000000576014 -0.000000175992 -0.000000000020 -0.000000000000 0.000000000000 -0.000002506053 0.000000003469 -0.000003765703 0.999999999990
30.538000000000 -0.000078322127 -0.000000580054 -0.000000175992 -0.000000000020 -0.000000000001 -0.000000000000 -0.000002506053 0.000000003104 -0.000003766319 0.999999999990
30.543000000000 -0.000078322127 -0.000000583965 -0.000000175992 -0.000000000020 -0.000000000000 -0.000000000000 -0.000002506053 0.000000002728 -0.000003766934 0.999999999990
30.548000000000 -0.000078322127 -0.000000587744 -0.000000175993 -0.000000000020 -0.000000000000 0.000000000000 -0.000002506053 0.000000002343 -0.000003767550 0.999999999990
30.553000000000 -0.000078322127 -0.000000591387 -0.000000175993 -0.000000000021 -0.000000000000 -0.000000000000 -0.000002506053 0.000000001949 -0.000003768165 0.999999999990
30.558000000000 -0.000078322128 -0.000000594891 -0.000000175993 -0.000000000021 -0.000000000001 0.000000000000 -0.000002506053 0.000000001545 -0.000003768780 0.999999999990
30.563000000000 -0.000078322128 -0.000000598253 -0.000000175993 -0.000000000021 0.000000000000 -0.000000000000 -0.000002506053 0.000000001134 -0.000003769396 0.999999999990
30.568000000000 -0.000078322128 -0.000000601470 -0.000000175993 -0.000000000021 0.000000000000 0.000000000001 -0.000002506053 0.000000000714 -0.000003770011 0.999999999990
30.573000000000 -0.000078322128 -0.000000604540 -0.000000175993 -0.000000000022 0.000000000001 -0.000000000000 -0.000002506053 0.000000000286 -0.000003770627 0.999999999990
30.578000000000 -0.000078322128 -0.000000607459 -0.000000175993 -0.000000000022 -0.000000000002 -0.000000000000 -0.000002506053 -0.000000000149 -0.000003771242 0.999999999990
30.583000000000 -0.000078322128 -0.000000610225 -0.000000175993 -0.000000000022 0.000000000001 0.000000000000 -0.000002506053 -0.000000000592 -0.000003771858 0.999999999990
30.588000000000 -0.000078322128 -0.000000612835 -0.000000175993 -0.000000000022 -0.000000000000 -0.000000000000 -0.000002506053 -0.000000001041 -0.000003772473 0.999999999990
30.593000000000 -0.000078322128 -0.000000615288 -0.000000175993 -0.000000000022 0.000000000001 0.000000000000 -0.000002506053 -0.000000001496 -0.000003773088 0.999999999990
30.598000000000 -0.000078322128 -0.000000617581 -0.000000175993 -0.000000000022 -0.000000000000 0.000000000000 -0.000002506053 -0.000000001957 -0.000003773704 0.999999999990
30.603000000000 -0.000078322128 -0.000000619713 -0.000000175993 -0.000000000022 -0.000000000001 -0.000000000000 -0.000002506053 -0.000000002424 -0.000003774319 0.999999999990
30.608000000000 -0.000078322128 -0.000000621680 -0.000000175993 -0.000000000022 0.000000000002 0.000000000000 -0.000002506053 -0.000000002896 -0.000003774935 0.999999999990
30.613000000000 -0.000078322128 -0.000000623483 -0.000000175994 -0.000000000023 0.000000000000 0.000000000000 -0.000002506053 -0.000000003372 -0.000003775550 0.999999999990
30.618000000000 -0.000078322128 -0.000000625118 -0.000000175994 -0.000000000023 -0.000000000000 -0.000000000001 -0.000002506053 -0.000000003853 -0.000003776166 0.999999999990
30.623000000000 -0.000078322128 -0.000000626585 -0.000000175994 -0.000000000023 0.000000000001 0.000000000000 -0.000002506053 -0.000000004337 -0.000003776781 0.999999999990
30.628000000000 -0.000078322128 -0.000000627882 -0.000000175994 -0.000000000023 -0.000000000002 0.000000000000 -0.000002506053 -0.000000004825 -0.000003777396 0.999999999990
30.633000000000 -0.000078322128 -0.000000629009 -0.000000175994 -0.000000000023 0.000000000001 -0.000000000000 -0.000002506053 -0.000000005316 -0.000003778012 0.999999999990
30.638000000000 -0.000078322128 -0.000000629964 -0.000000175994 -0.000000000022 0.000000000000 0.000000000000 -0.000002506053 -0.000000005810 -0.000003778627 0.999999999990
30.643000000000 -0.000078322128 -0.000000630746 -0.000000175994 -0.000000000022 0.000000000001 0.000000000000 -0.000002506053 -0.000000006305 -0.000003779243 0.999999999990
30.648000000000 -0.000078322128 -0.000000631354 -0.000000175994 -0.000000000022 0.000000000000 -0.000000000001 -0.000002506053 -0.000000006803 -0.000003779858 0.999999999990
30.653000000000 -0.000078322128 -0.000000631789 -0.000000175994 -0.000000000022 0.000000000000 -0.000000000000 -0.000002506053 -0.000000007301 -0.000003780473 0.999999999990
30.658000000000 -0.000078322128 -0.000000632050 -0.000000175994 -0.000000000022 -0.000000000000 0.000000000000 -0.000002506053 -0.000000007801 -0.000003781089 0.999999999990
30.663000000000 -0.000078322128 -0.000000632137 -0.000000175994 -0.000000000022 -0.000000000000 0.000000000000 -0.000002506053 -0.000000008301 -0.000003781704 0.999999999990
30.668000000000 -0.000078322128 -0.000000632048 -0.000000175994 -0.000000000022 0.000000000001 0.000000000000 -0.000002506053 -0.000000008800 -0.000003782320 0.999999999990
30.673000000000 -0.000078322128 -0.000000631786 -0.000000175994 -0.000000000022 0.000000000000 -0.000000000000 -0.000002506053 -0.000000009300 -0.000003782935 0.999999999990
30.678000000000 -0.000078322128 -0.000000631349 -0.000000175995 -0.000000000021 -0.000000000001 0.000000000000 -0.000002506053 -0.000000009798 -0.000003783551 0.999999999990
30.683000000000 -0.000078322128 -0.000000630738 -0.000000175995 -0.000000000021 -0.000000000000 -0.000000000001 -0.000002506053 -0.000000010295 -0.000003784166 0.999999999990
30.688000000000 -0.000078322128 -0.000000629954 -0.000000175995 -0.000000000021 -0.000000000000 0.000000000000 -0.000002506053 -0.000000010790 -0.000003784781 0.999999999990
30.693000000000 -0.000078322128 -0.000000628998 -0.000000175995 -0.000000000021 0.000000000001 0.000000000001 -0.000002506053 -0.000000011283 -0.000003785397 0.999999999990
30.698000000000 -0.000078322128 -0.000000627870 -0.000000175995 -0.000000000020 0.000000000001 -0.000000000000 -0.000002506053 -0.000000011774 -0.000003786012 0.999999999990
30.703000000000 -0.000078322128 -0.000000626570 -0.000000175995 -0.000000000020 -0.000000000001 0.000000000000 -0.000002506053 -0.000000012261 -0.000003786628 0.999999999990
30.708000000000 -0.000078322128 -0.000000625102 -0.000000175995 -0.000000000020 0.000000000000 -0.000000000000 -0.000002506053 -0.000000012745 -0.000003787243 0.999999999990
30.713000000000 -0.000078322128 -0.000000623465 -0.000000175995 -0.000000000019 -0.000000000000 0.000000000000 -0.000002506053 -0.000000013225 -0.000003787859 0.999999999990
30.718000000000 -0.000078322128 -0.000000621661 -0.000000175995 -0.000000000019 -0.000000000000 -0.000000000000 -0.000002506053 -0.000000013700 -0.000003788474 0.999999999990
30.723000000000 -0.000078322128 -0.000000619691 -0.000000175995 -0.000000000019 0.000000000000 0.000000000000 -0.000002506053 -0.000000014171 -0.000003789089 0.999999999990
30.728000000000 -0.000078322128 -0.000000617558 -0.000000175995 -0.000000000018 -0.000000000002 -0.000000000000 -0.000002506053 -0.000000014636 -0.000003789705 0.999999999990
30.733000000000 -0.000078322128 -0.000000615263 -0.000000175995 -0.000000000018 -0.000000000000 -0.000000000000 -0.000002506053 -0.000000015096 -0.000003790320 0.999999999990
30.738000000000 -0.000078322128 -0.000000612809 -0.000000175995 -0.000000000018 -0.000000000001 0.000000000000 -0.000002506053 -0.000000015551 -0.000003790936 0.999999999990
30.743000000000 -0.000078322128 -0.000000610196 -0.000000175995 -0.000000000017 0.000000000000 0.000000000000 -0.000002506053 -0.000000015998 -0.000003791551 0.999999999990
30.748000000000 -0.000078322128 -0.000000607429 -0.000000175995 -0.000000000017 -0.000000000001 -0.000000000000 -0.000002506053 -0.000000016439 -0.000003792166 0.999999999990
30.753000000000 -0.000078322128 -0.000000604508 -0.000000175995 -0.000000000016 0.000000000001 -0.000000000000 -0.000002506053 -0.000000016873 -0.000003792782 0.999999999990
30.758000000000 -0.000078322128 -0.000000601437 -0.000000175995 -0.000000000016 -0.000000000001 -0.000000000000 -0.000002506053 -0.000000017299 -0.000003793397 0.999999999990
30.763000000000 -0.000078322128 -0.000000598218 -0.000000175995 -0.000000000015 0.000000000001 0.000000000000 -0.000002506053 -0.000000017717 -0.000003794013 0.999999999990
30.768000000000 -0.000078322128 -0.000000594855 -0.000000175995 -0.000000000015 0.000000000000 0.000000000000 -0.000002506053 -0.000000018127 -0.000003794628 0.999999999990
30.773000000000 -0.000078322128 -0.000000591349 -0.000000175995 -0.000000000014 0.000000000000 -0.000000000000 -0.000002506053 -0.000000018529 -0.000003795244 0.999999999990
30.778000000000 -0.000078322127 -0.000000587705 -0.000000175995 -0.000000000014 0.000000000000 0.000000000000 -0.000002506053 -0.000000018921 -0.000003795859 0.999999999990
30.783000000000 -0.000078322127 -0.000000583924 -0.000000175995 -0.000000000013 -0.000000000001 -0.000000000000 -0.000002506053 -0.000000019305 -0.000003796474 0.999999999990
30.788000000000 -0.000078322127 -0.000000580012 -0.000000175995 -0.000000000013 -0.000000000001 0.000000000000 -0.000002506053 -0.000000019678 -0.000003797090 0.999999999990
30.793000000000 -0.000078322127 -0.000000575970 -0.000000175995 -0.000000000012 0.000000000001 -0.000000000000 -0.000002506053 -0.000000020042 -0.000003797705 0.999999999990
30.798000000000 -0.000078322127 -0.000000571803 -0.000000175995 -0.000000000012 -0.000000000000 -0.000000000000 -0.000002506053 -0.000000020395 -0.000003798321 0.999999999990
30.803000000000 -0.000078322127 -0.000000567514 -0.000000175995 -0.000000000011 0.000000000000 0.000000000000 -0.000002506053 -0.000000020737 -0.000003798936 0.999999999990
30.808000000000 -0.000078322127 -0.000000563107 -0.000000175995 -0.000000000011 -0.000000000000 -0.000000000000 -0.000002506053 -0.000000021069 -0.000003799551 0.999999999990
30.813000000000 -0.000078322127 -0.000000558585 -0.000000175995 -0.000000000010 0.000000000000 -0.000000000000 -0.000002506053 -0.000000021390 -0.000003800167 0.999999999990
30.818000000000 -0.000078322127 -0.000000553953 -0.000000175995 -0.000000000009 0.000000000001 0.000000000000 -0.000002506053 -0.000000021699 -0.000003800782 0.999999999990
30.823000000000 -0.000078322127 -0.000000549215 -0.000000175995 -0.000000000009 -0.000000000000 0.000000000000 -0.000002506053 -0.000000021996 -0.000003801398 0.999999999990
30.828000000000 -0.000078322127 -0.000000544375 -0.000000175995 -0.000000000008 -0.000000000001 0.000000000000 -0.000002506053 -0.000000022282 -0.000003802013 0.999999999990
30.833000000000 -0.000078322127 -0.000000539437 -0.000000175995 -0.000000000008 0.000000000000 0.000000000000 -0.000002506053 -0.000000022555 -0.000003802629 0.999999999990
30.838000000000 -0.000078322127 -0.000000534405 -0.000000175994 -0.000000000007 0.000000000000 -0.000000000000 -0.000002506053 -0.000000022815 -0.000003803244 0.999999999990
30.843000000000 -0.000078322127 -0.000000529284 -0.000000175994 -0.000000000006 -0.000000000000 0.000000000000 -0.000002506053 -0.000000023063 -0.000003803859 0.999999999990
30.848000000000 -0.000078322127 -0.000000524079 -0.000000175994 -0.000000000006 -0.000000000001 0.000000000000 -0.000002506053 -0.000000023298 -0.000003804475 0.999999999990
30.853000000000 -0.000078322126 -0.000000518793 -0.000000175994 -0.000000000005 0.000000000000 -0.000000000000 -0.000002506053 -0.000000023520 -0.000003805090 0.999999999990
30.858000000000 -0.000078322126 -0.000000513432 -0.000000175994 -0.000000000004 0.000000000001 0.000000000000 -0.000002506053 -0.000000023728 -0.000003805706 0.999999999990
30.863000000000 -0.000078322126 -0.000000507999 -0.000000175994 -0.000000000004 -0.000000000001 0.000000000000 -0.000002506053 -0.000000023923 -0.000003806321 0.999999999990
30.868000000000 -0.000078322126 -0.000000502501 -0.000000175994 -0.000000000003 0.000000000001 -0.000000000001 -0.000002506053 -0.000000024105 -0.000003806936 0.999999999990
30.873000000000 -0.000078322126 -0.000000496941 -0.000000175994 -0.000000000003 0.000000000000 0.000000000001 -0.000002506053 -0.000000024272 -0.000003807552 0.999999999990
30.878000000000 -0.000078322126 -0.000000491324 -0.000000175993 -0.000000000002 0.000000000001 -0.000000000000 -0.000002506053 -0.000000024426 -0.000003808167 0.999999999990
30.883000000000 -0.000078322126 -0.000000485656 -0.000000175993 -0.000000000001 -0.000000000001 -0.000000000000 -0.000002506053 -0.000000024565 -0.000003808783 0.999999999990
30.888000000000 -0.000078322126 -0.000000479942 -0.000000175993 -0.000000000001 0.000000000000 0.000000000000 -0.000002506053 -0.000000024690 -0.000003809398 0.999999999990
30.893000000000 -0.000078322126 -0.000000474185 -0.000000175993 0.000000000000 -0.000000000000 -0.000000000000 -0.000002506053 -0.000000024801 -0.000003810013 0.999999999990
30.898000000000 -0.000078322126 -0.000000468392 -0.000000175993 0.000000000001 -0.000000000000 0.000000000000 -0.000002506053 -0.000000024897 -0.000003810629 0.999999999990
30.903000000000 -0.000078322126 -0.000000462568 -0.000000175992 0.000000000001 0.000000000000 0.000000000000 -0.000002506053 -0.000000024979 -0.000003811244 0.999999999990
30.908000000000 -0.000078322126 -0.000000456716 -0.000000175992 0.000000000002 0.000000000000 0.000000000000 -0.000002506053 -0.000000025046 -0.000003811860 0.999999999990
30.913000000000 -0.000078322125 -0.000000450844 -0.000000175992 0.000000000003 0.000000000000 -0.000000000000 -0.000002506053 -0.000000025099 -0.000003812475 0.999999999990
30.918000000000 -0.000078322125 -0.000000444955 -0.000000175992 0.000000000003 -0.000000000000 0.000000000000 -0.000002506053 -0.000000025137 -0.000003813091 0.999999999990
30.923000000000 -0.000078322125 -0.000000439055 -0.000000175992 0.000000000004 0.000000000000 -0.000000000000 -0.000002506053 -0.000000025160 -0.000003813706 0.999999999990
30.928000000000 -0.000078322125 -0.000000433149 -0.000000175991 0.000000000005 -0.000000000001 -0.000000000000 -0.000002506053 -0.000000025168 -0.000003814321 0.999999999990
30.933000000000 -0.000078322125 -0.000000427242 -0.000000175991 0.000000000005 0.000000000000 -0.000000000000 -0.000002506053 -0.000000025162 -0.000003814937 0.999999999990
30.938000000000 -0.000078322125 -0.000000421340 -0.000000175991 0.000000000006 -0.000000000000 0.000000000000 -0.000002506053 -0.000000025141 -0.000003815552 0.999999999990
30.943000000000 -0.000078322125 -0.000000415446 -0.000000175990 0.000000000006 0.000000000000 0.000000000000 -0.000002506053 -0.000000025105 -0.000003816168 0.999999999990
30.948000000000 -0.000078322125 -0.000000409568 -0.000000175990 0.000000000007 0.000000000001 -0.000000000001 -0.000002506053 -0.000000025054 -0.000003816783 0.999999999990
30.953000000000 -0.000078322125 -0.000000403709 -0.000000175990 0.000000000008 -0.000000000001 0.000000000000 -0.000002506053 -0.000000024989 -0.000003817398 0.999999999990
30.958000000000 -0.000078322125 -0.000000397875 -0.000000175990 0.000000000008 0.000000000000 -0.000000000000 -0.000002506053 -0.000000024909 -0.000003818014 0.999999999990
30.963000000000 -0.000078322125 -0.000000392071 -0.000000175989 0.000000000009 -0.000000000001 -0.000000000000 -0.000002506053 -0.000000024814 -0.000003818629 0.999999999990
30.968000000000 -0.000078322124 -0.000000386303 -0.000000175989 0.000000000009 0.000000000000 0.000000000000 -0.000002506053 -0.000000024705 -0.000003819245 0.999999999990
30.973000000000 -0.000078322124 -0.000000380574 -0.000000175989 0.000000000010 -0.000000000001 0.000000000000 -0.000002506053 -0.000000024582 -0.000003819860 0.999999999990
30.978000000000 -0.000078322124 -0.000000374890 -0.000000175988 0.000000000011 0.000000000001 -0.000000000001 -0.000002506053 -0.000000024445 -0.000003820475 0.999999999990
30.983000000000 -0.000078322124 -0.000000369256 -0.000000175988 0.000000000011 -0.000000000001 0.000000000001 -0.000002506053 -0.000000024293 -0.000003821091 0.999999999990
30.988000000000 -0.000078322124 -0.000000363677 -0.000000175988 0.000000000012 0.000000000001 -0.000000000001 -0.000002506053 -0.000000024127 -0.000003821706 0.999999999990
30.993000000000 -0.000078322124 -0.000000358158 -0.000000175987 0.000000000012 0.000000000000 0.000000000000 -0.000002506053 -0.000000023948 -0.000003822321 0.999999999990
30.998000000000 -0.000078322124 -0.000000352703 -0.000000175987 0.000000000013 -0.000000000000 0.000000000000 -0.000002506053 -0.000000023754 -0.000003822937 0.999999999990
31.003000000000 -0.000078322124 -0.000000347318 -0.000000175987 0.000000000013 -0.000000000000 0.000000000000 -0.000002506053 -0.000000023548 -0.000003823552 0.999999999990
31.008000000000 -0.000078322124 -0.000000342007 -0.000000175986 0.000000000014 -0.000000000000 -0.000000000000 -0.000002506053 -0.000000023328 -0.000003824168 0.999999999990
31.013000000000 -0.000078322124 -0.000000336775 -0.000000175986 0.000000000014 -0.000000000001 -0.000000000000 -0.000002506053 -0.000000023094 -0.000003824783 0.999999999990
31.018000000000 -0.000078322124 -0.000000331626 -0.000000175986 0.000000000015 0.000000000001 0.000000000000 -0.000002506053 -0.000000022848 -0.000003825398 0.999999999990
31.023000000000 -0.000078322124 -0.000000326564 -0.000000175985 0.000000000015 -0.000000000001 -0.000000000000 -0.000002506053 -0.000000022589 -0.000003826014 0.999999999990
31.028000000000 -0.000078322124 -0.000000321595 -0.000000175985 0.000000000016 0.000000000000 0.000000000000 -0.000002506053 -0.000000022318 -0.000003826629 0.999999999990
31.033000000000 -0.000078322123 -0.000000316723 -0.000000175984 0.000000000016 -0.000000000000 -0.000000000000 -0.000002506053 -0.000000022034 -0.000003827245 0.999999999990
31.038000000000 -0.000078322123 -0.000000311951 -0.000000175984 0.000000000017 0.000000000001 0.000000000000 -0.000002506053 -0.000000021738 -0.000003827860 0.999999999990
31.043000000000 -0.000078322123 -0.000000307284 -0.000000175984 0.000000000017 -0.000000000000 -0.000000000000 -0.000002506053 -0.000000021430 -0.000003828475 0.999999999990
31.048000000000 -0.000078322123 -0.000000302726 -0.000000175983 0.000000000017 -0.000000000000 0.000000000000 -0.000002506053 -0.000000021111 -0.000003829091 0.999999999990
31.053000000000 -0.000078322123 -0.000000298281 -0.000000175983 0.000000000018 -0.000000000000 -0.000000000000 -0.000002506053 -0.000000020781 -0.000003829706 0.999999999990
31.058000000000 -0.000078322123 -0.000000293953 -0.000000175982 0.000000000018 -0.000000000000 0.000000000000 -0.000002506053 -0.000000020440 -0.000003830321 0.999999999990
31.063000000000 -0.000078322123 -0.000000289745 -0.000000175982 0.000000000018 -0.000000000001 -0.000000000000 -0.000002506053 -0.000000020088 -0.000003830937 0.999999999990
31.068000000000 -0.000078322123 -0.000000285662 -0.000000175982 0.000000000019 0.000000000000 -0.000000000000 -0.000002506053 -0.000000019726 -0.000003831552 0.999999999990
31.073000000000 -0.000078322123 -0.000000281707 -0.000000175981 0.000000000019 -0.000000000000 -0.000000000001 -0.000002506053 -0.000000019353 -0.000003832168 0.999999999990
31.078000000000 -0.000078322123 -0.000000277883 -0.000000175981 0.000000000019 0.000000000001 0.000000000001 -0.000002506053 -0.000000018972 -0.000003832783 0.999999999990
31.083000000000 -0.000078322123 -0.000000274194 -0.000000175980 0.000000000020 -0.000000000000 0.000000000000 -0.000002506053 -0.000000018580 -0.000003833398 0.999999999990
31.088000000000 -0.000078322123 -0.000000270642 -0.000000175980 0.000000000020 0.000000000000 -0.000000000000 -0.000002506053 -0.000000018180 -0.000003834014 0.999999999990
31.093000000000 -0.000078322123 -0.000000267232 -0.000000175979 0.000000000020 -0.000000000000 -0.000000000000 -0.000002506053 -0.000000017771 -0.000003834629 0.999999999990
31.098000000000 -0.000078322123 -0.000000263966 -0.000000175979 0.000000000020 -0.000000000001 0.000000000000 -0.000002506053 -0.000000017354 -0.000003835244 0.999999999990
31.103000000000 -0.000078322123 -0.000000260846 -0.000000175979 0.000000000021 0.000000000001 -0.000000000000 -0.000002506053 -0.000000016928 -0.000003835860 0.999999999990
31.108000000000 -0.000078322123 -0.000000257876 -0.000000175978 0.000000000021 -0.000000000001 -0.000000000000 -0.000002506053 -0.000000016496 -0.000003836475 0.999999999990
31.113000000000 -0.000078322123 -0.000000255058 -0.000000175978 0.000000000021 0.000000000000 0.000000000001 -0.000002506053 -0.000000016056 -0.000003837091 0.999999999989
31.118000000000 -0.000078322122 -0.000000252395 -0.000000175977 0.000000000021 0.000000000000 0.000000000000 -0.000002506053 -0.000000015609 -0.000003837706 0.999999999989
31.123000000000 -0.000078322122 -0.000000249888 -0.000000175977 0.000000000021 -0.000000000000 -0.000000000000 -0.000002506053 -0.000000015156 -0.000003838321 0.999999999989
31.128000000000 -0.000078322122 -0.000000247541 -0.000000175976 0.000000000021 -0.000000000001 0.000000000000 -0.000002506053 -0.000000014696 -0.000003838937 0.999999999989
31.133000000000 -0.000078322122 -0.000000245355 -0.000000175976 0.000000000021 0.000000000000 -0.000000000000 -0.000002506053 -0.000000014231 -0.000003839552 0.999999999989
31.138000000000 -0.000078322122 -0.000000243332 -0.000000175975 0.000000000021 -0.000000000001 0.000000000000 -0.000002506053 -0.000000013761 -0.000003840167 0.999999999989
31.143000000000 -0.000078322122 -0.000000241473 -0.000000175975 0.000000000022 0.000000000001 0.000000000000 -0.000002506053 -0.000000013286 -0.000003840783 0.999999999989
31.148000000000 -0.000078322122 -0.000000239781 -0.000000175974 0.000000000022 0.000000000000 0.000000000000 -0.000002506053 -0.000000012807 -0.000003841398 0.999999999989
31.153000000000 -0.000078322122 -0.000000238257 -0.000000175974 0.000000000022 -0.000000000001 -0.000000000000 -0.000002506053 -0.000000012324 -0.000003842014 0.999999999989
31.158000000000 -0.000078322122 -0.000000236903 -0.000000175974 0.000000000022 0.000000000001 0.000000000000 -0.000002506053 -0.000000011837 -0.000003842629 0.999999999989
31.163000000000 -0.000078322122 -0.000000235718 -0.000000175973 0.000000000022 -0.000000000000 0.000000000000 -0.000002506053 -0.000000011347 -0.000003843244 0.999999999989
31.168000000000 -0.000078322122 -0.000000234706 -0.000000175973 0.000000000021 0.000000000001 -0.000000000000 -0.000002506053 -0.000000010854 -0.000003843860 0.999999999989
31.173000000000 -0.000078322122 -0.000000233865 -0.000000175972 0.000000000021 -0.000000000001 -0.000000000000 -0.000002506053 -0.000000010359 -0.000003844475 0.999999999989
31.178000000000 -0.000078322122 -0.000000233198 -0.000000175972 0.000000000021 -0.000000000000 0.000000000000 -0.000002506053 -0.000000009863 -0.000003845090 0.999999999989
31.183000000000 -0.000078322122 -0.000000232704 -0.000000175971 0.000000000021 -0.000000000001 -0.000000000000 -0.000002506053 -0.000000009364 -0.000003845706 0.999999999989
31.188000000000 -0.000078322122 -0.000000232384 -0.000000175971 0.000000000021 0.000000000001 -0.000000000000 -0.000002506053 -0.000000008865 -0.000003846321 0.999999999989
31.193000000000 -0.000078322122 -0.000000232239 -0.000000175970 0.000000000021 0.000000000000 0.000000000000 -0.000002506053 -0.000000008365 -0.000003846936 0.999999999989
31.198000000000 -0.000078322122 -0.000000232268 -0.000000175970 0.000000000021 -0.000000000000 -0.000000000000 -0.000002506053 -0.000000007866 -0.000003847552 0.999999999989
31.203000000000 -0.000078322122 -0.000000232472 -0.000000175969 0.000000000021 0.000000000000 0.000000000000 -0.000002506053 -0.000000007366 -0.000003848167 0.999999999989
31.208000000000 -0.000078322122 -0.000000232850 -0.000000175969 0.000000000020 0.000000000000 -0.000000000000 -0.000002506053 -0.000000006867 -0.000003848782 0.999999999989
31.213000000000 -0.000078322122 -0.000000233402 -0.000000175969 0.000000000020 -0.000000000000 0.000000000000 -0.000002506053 -0.000000006370 -0.000003849398 0.999999999989
31.218000000000 -0.000078322122 -0.000000234128 -0.000000175968 0.000000000020 -0.000000000000 0.000000000000 -0.000002506053 -0.000000005874 -0.000003850013 0.999999999989
31.223000000000 -0.000078322122 -0.000000235026 -0.000000175968 0.000000000020 0.000000000000 -0.000000000001 -0.000002506053 -0.000000005380 -0.000003850628 0.999999999989
31.228000000000 -0.000078322122 -0.000000236096 -0.000000175967 0.000000000020 0.000000000000 -0.000000000000 -0.000002506053 -0.000000004889 -0.000003851244 0.999999999989
31.233000000000 -0.000078322122 -0.000000237338 -0.000000175967 0.000000000019 0.000000000000 0.000000000001 -0.000002506053 -0.000000004401 -0.000003851859 0.999999999989
31.238000000000 -0.000078322122 -0.000000238749 -0.000000175966 0.000000000019 -0.000000000001 0.000000000000 -0.000002506053 -0.000000003916 -0.000003852474 0.999999999989
31.243000000000 -0.000078322122 -0.000000240330 -0.000000175966 0.000000000019 -0.000000000001 0.000000000000 -0.000002506053 -0.000000003434 -0.000003853090 0.999999999989
31.248000000000 -0.000078322122 -0.000000242078 -0.000000175966 0.000000000018 0.000000000001 -0.000000000000 -0.000002506053 -0.000000002957 -0.000003853705 0.999999999989
31.253000000000 -0.000078322122 -0.000000243991 -0.000000175965 0.000000000018 -0.000000000000 0.000000000000 -0.000002506053 -0.000000002485 -0.000003854321 0.999999999989
31.258000000000 -0.000078322122 -0.000000246069 -0.000000175965 0.000000000018 0.000000000000 0.000000000000 -0.000002506053 -0.000000002018 -0.000003854936 0.999999999989
31.263000000000 -0.000078322122 -0.000000248310 -0.000000175964 0.000000000017 -0.000000000001 0.000000000000 -0.000002506053 -0.000000001556 -0.000003855551 0.999999999989
31.268000000000 -0.000078322122 -0.000000250711 -0.000000175964 0.000000000017 0.000000000000 -0.000000000000 -0.000002506053 -0.000000001100 -0.000003856167 0.999999999989
31.273000000000 -0.000078322122 -0.000000253270 -0.000000175964 0.000000000016 -0.000000000001 -0.000000000001 -0.000002506053 -0.000000000650 -0.000003856782 0.999999999989
31.278000000000 -0.000078322123 -0.000000255985 -0.000000175963 0.000000000016 0.000000000000 0.000000000000 -0.000002506053 -0.000000000206 -0.000003857397 0.999999999989
31.283000000000 -0.000078322123 -0.000000258854 -0.000000175963 0.000000000015 0.000000000000 0.000000000000 -0.000002506053 0.000000000230 -0.000003858013 0.999999999989
31.288000000000 -0.000078322123 -0.000000261875 -0.000000175962 0.000000000015 -0.000000000000 -0.000000000001 -0.000002506053 0.000000000659 -0.000003858628 0.999999999989
31.293000000000 -0.000078322123 -0.000000265044 -0.000000175962 0.000000000015 0.000000000001 0.000000000000 -0.000002506053 0.000000001080 -0.000003859243 0.999999999989
31.298000000000 -0.000078322123 -0.000000268359 -0.000000175962 0.000000000014 -0.000000000001 0.000000000000 -0.000002506053 0.000000001492 -0.000003859859 0.999999999989
31.303000000000 -0.000078322123 -0.000000271817 -0.000000175961 0.000000000014 0.000000000000 -0.000000000000 -0.000002506053 0.000000001897 -0.000003860474 0.999999999989
31.308000000000 -0.000078322123 -0.000000275415 -0.000000175961 0.000000000013 -0.000000000000 0.000000000000 -0.000002506053 0.000000002292 -0.000003861089 0.999999999989
31.313000000000 -0.000078322123 -0.000000279149 -0.000000175961 0.000000000013 0.000000000000 -0.000000000000 -0.000002506053 0.000000002679 -0.000003861705 0.999999999989
31.318000000000 -0.000078322123 -0.000000283017 -0.000000175960 0.000000000012 0.000000000000 -0.000000000000 -0.000002506053 0.000000003055 -0.000003862320 0.999999999989
31.323000000000 -0.000078322123 -0.000000287016 -0.000000175960 0.000000000011 0.000000000000 0.000000000000 -0.000002506053 0.000000003422 -0.000003862935 0.999999999989
31.328000000000 -0.000078322123 -0.000000291141 -0.000000175960 0.000000000011 0.000000000000 -0.000000000000 -0.000002506053 0.000000003779 -0.000003863551 0.999999999989
31.333000000000 -0.000078322123 -0.000000295389 -0.000000175959 0.000000000010 0.000000000001 -0.000000000000 -0.000002506053 0.000000004125 -0.000003864166 0.999999999989
31.338000000000 -0.000078322123 -0.000000299757 -0.000000175959 0.000000000010 0.000000000001 0.000000000000 -0.000002506053 0.000000004461 -0.000003864781 0.999999999989
31.343000000000 -0.000078322123 -0.000000304240 -0.000000175959 0.000000000009 -0.000000000000 -0.000000000000 -0.000002506053 0.000000004785 -0.000003865397 0.999999999989
31.348000000000 -0.000078322123 -0.000000308834 -0.000000175958 0.000000000009 0.000000000001 0.000000000000 -0.000002506053 0.000000005098 -0.000003866012 0.999999999989
31.353000000000 -0.000078322123 -0.000000313537 -0.000000175958 0.000000000008 -0.000000000000 0.000000000000 -0.000002506053 0.000000005399 -0.000003866627 0.999999999989
31.358000000000 -0.000078322123 -0.000000318343 -0.000000175958 0.000000000007 -0.000000000000 0.000000000000 -0.000002506053 0.000000005689 -0.000003867243 0.999999999989
31.363000000000 -0.000078322124 -0.000000323248 -0.000000175957 0.000000000007 -0.000000000000 -0.000000000000 -0.000002506053 0.000000005966 -0.000003867858 0.999999999989
31.368000000000 -0.000078322124 -0.000000328248 -0.000000175957 0.000000000006 -0.000000000000 0.000000000000 -0.000002506053 0.000000006231 -0.000003868473 0.999999999989
31.373000000000 -0.000078322124 -0.000000333339 -0.000000175957 0.000000000006 -0.000000000000 -0.000000000000 -0.000002506053 0.000000006483 -0.000003869089 0.999999999989
31.378000000000 -0.000078322124 -0.000000338517 -0.000000175957 0.000000000005 -0.000000000000 0.000000000000 -0.000002506053 0.000000006722 -0.000003869704 0.999999999989
31.383000000000 -0.000078322124 -0.000000343776 -0.000000175956 0.000000000004 -0.000000000000 -0.000000000000 -0.000002506053 0.000000006948 -0.000003870319 0.999999999989
31.388000000000 -0.000078322124 -0.000000349112 -0.000000175956 0.000000000004 -0.000000000000 -0.000000000000 -0.000002506053 0.000000007161 -0.000003870935 0.999999999989
31.393000000000 -0.000078322124 -0.000000354521 -0.000000175956 0.000000000003 -0.000000000001 0.000000000000 -0.000002506053 0.000000007361 -0.000003871550 0.999999999989
31.398000000000 -0.000078322124 -0.000000359997 -0.000000175956 0.000000000002 0.000000000001 -0.000000000000 -0.000002506053 0.000000007547 -0.000003872165 0.999999999989
31.403000000000 -0.000078322124 -0.000000365536 -0.000000175955 0.000000000002 -0.000000000000 -0.000000000000 -0.000002506053 0.000000007719 -0.000003872780 0.999999999989
31.408000000000 -0.000078322124 -0.000000371134 -0.000000175955 0.000000000001 -0.000000000000 0.000000000000 -0.000002506053 0.000000007877 -0.000003873396 0.999999999989
31.413000000000 -0.000078322124 -0.000000376785 -0.000000175955 0.000000000000 -0.000000000000 -0.000000000000 -0.000002506053 0.000000008021 -0.000003874011 0.999999999989
31.418000000000 -0.000078322124 -0.000000382484 -0.000000175955 -0.000000000000 -0.000000000000 -0.000000000000 -0.000002506053 0.000000008151 -0.000003874626 0.999999999989
31.423000000000 -0.000078322125 -0.000000388226 -0.000000175955 -0.000000000001 0.000000000000 0.000000000000 -0.000002506053 0.000000008267 -0.000003875242 0.999999999989
31.428000000000 -0.000078322125 -0.000000394007 -0.000000175954 -0.000000000002 -0.000000000000 -0.000000000000 -0.000002506053 0.000000008368 -0.000003875857 0.999999999989
31.433000000000 -0.000078322125 -0.000000399821 -0.000000175954 -0.000000000002 0.000000000001 0.000000000000 -0.000002506053 0.000000008455 -0.000003876472 0.999999999989
31.438000000000 -0.000078322125 -0.000000405664 -0.000000175954 -0.000000000003 0.000000000001 0.000000000001 -0.000002506053 0.000000008527 -0.000003877088 0.999999999989
31.443000000000 -0.000078322125 -0.000000411529 -0.000000175954 -0.000000000003 -0.000000000000 -0.000000000001 -0.000002506053 0.000000008584 -0.000003877703 0.999999999989
31.448000000000 -0.000078322125 -0.000000417413 -0.000000175954 -0.000000000004 0.000000000001 0.000000000000 -0.000002506053 0.000000008627 -0.000003878318 0.999999999989
31.453000000000 -0.000078322125 -0.000000423309 -0.000000175954 -0.000000000005 -0.000000000000 -0.000000000000 -0.000002506053 0.000000008655 -0.000003878934 0.999999999989
31.458000000000 -0.000078322125 -0.000000429213 -0.000000175954 -0.000000000005 -0.000000000001 0.000000000000 -0.000002506053 0.000000008668 -0.000003879549 0.999999999989
31.463000000000 -0.000078322125 -0.000000435120 -0.000000175953 -0.000000000006 0.000000000001 -0.000000000000 -0.000002506053 0.000000008667 -0.000003880164 0.999999999989
31.468000000000 -0.000078322125 -0.000000441024 -0.000000175953 -0.000000000007 -0.000000000001 -0.000000000000 -0.000002506053 0.000000008651 -0.000003880780 0.999999999989
31.473000000000 -0.000078322125 -0.000000446921 -0.000000175953 -0.000000000007 -0.000000000000 0.000000000000 -0.000002506053 0.000000008620 -0.000003881395 0.999999999989
31.478000000000 -0.000078322126 -0.000000452804 -0.000000175953 -0.000000000008 -0.000000000001 0.000000000000 -0.000002506053 0.000000008574 -0.000003882010 0.999999999989
31.483000000000 -0.000078322126 -0.000000458669 -0.000000175953 -0.000000000008 0.000000000001 -0.000000000000 -0.000002506053 0.000000008514 -0.000003882626 0.999999999989
31.488000000000 -0.000078322126 -0.000000464512 -0.000000175953 -0.000000000009 -0.000000000001 0.000000000000 -0.000002506053 0.000000008439 -0.000003883241 0.999999999989
31.493000000000 -0.000078322126 -0.000000470326 -0.000000175953 -0.000000000010 -0.000000000000 -0.000000000000 -0.000002506053 0.000000008349 -0.000003883856 0.999999999989
31.498000000000 -0.000078322126 -0.000000476107 -0.000000175953 -0.000000000010 -0.000000000000 0.000000000000 -0.000002506053 0.000000008245 -0.000003884472 0.999999999989
31.503000000000 -0.000078322126 -0.000000481849 -0.000000175953 -0.000000000011 0.000000000000 -0.000000000000 -0.000002506053 0.000000008127 -0.000003885087 0.999999999989
31.508000000000 -0.000078322126 -0.000000487548 -0.000000175953 -0.000000000011 -0.000000000001 0.000000000001 -0.000002506053 0.000000007994 -0.000003885702 0.999999999989
31.513000000000 -0.000078322126 -0.000000493199 -0.000000175953 -0.000000000012 0.000000000001 -0.000000000000 -0.000002506053 0.000000007847 -0.000003886318 0.999999999989
31.518000000000 -0.000078322126 -0.000000498796 -0.000000175953 -0.000000000013 0.000000000000 -0.000000000000 -0.000002506053 0.000000007686 -0.000003886933 0.999999999989
31.523000000000 -0.000078322126 -0.000000504336 -0.000000175953 -0.000000000013 0.000000000001 0.000000000000 -0.000002506053 0.000000007511 -0.000003887548 0.999999999989
31.528000000000 -0.000078322126 -0.000000509812 -0.000000175953 -0.000000000014 0.000000000001 -0.000000000000 -0.000002506053 0.000000007322 -0.000003888163 0.999999999989
31.533000000000 -0.000078322127 -0.000000515220 -0.000000175953 -0.000000000014 0.000000000001 -0.000000000000 -0.000002506053 0.000000007120 -0.000003888779 0.999999999989
31.538000000000 -0.000078322127 -0.000000520556 -0.000000175952 -0.000000000015 0.000000000001 -0.000000000000 -0.000002506053 0.000000006904 -0.000003889394 0.999999999989
31.543000000000 -0.000078322127 -0.000000525815 -0.000000175952 -0.000000000015 -0.000000000000 0.000000000001 -0.000002506053 0.000000006675 -0.000003890009 0.999999999989
31.548000000000 -0.000078322127 -0.000000530992 -0.000000175952 -0.000000000016 -0.000000000000 -0.000000000000 -0.000002506053 0.000000006434 -0.000003890625 0.999999999989
31.553000000000 -0.000078322127 -0.000000536083 -0.000000175952 -0.000000000016 -0.000000000000 0.000000000000 -0.000002506053 0.000000006179 -0.000003891240 0.999999999989
31.558000000000 -0.000078322127 -0.000000541083 -0.000000175952 -0.000000000017 -0.000000000001 0.000000000000 -0.000002506053 0.000000005911 -0.000003891855 0.999999999989
31.563000000000 -0.000078322127 -0.000000545988 -0.000000175952 -0.000000000017 -0.000000000000 -0.000000000000 -0.000002506053 0.000000005632 -0.000003892471 0.999999999989
31.568000000000 -0.000078322127 -0.000000550794 -0.000000175953 -0.000000000017 0.000000000000 0.000000000000 -0.000002506053 0.000000005340 -0.000003893086 0.999999999989
31.573000000000 -0.000078322127 -0.000000555496 -0.000000175953 -0.000000000018 -0.000000000001 -0.000000000001 -0.000002506053 0.000000005036 -0.000003893701 0.999999999989
31.578000000000 -0.000078322127 -0.000000560091 -0.000000175953 -0.000000000018 -0.000000000000 0.000000000000 -0.000002506053 0.000000004721 -0.000003894317 0.999999999989
31.583000000000 -0.000078322127 -0.000000564573 -0.000000175953 -0.000000000019 0.000000000000 0.000000000000 -0.000002506053 0.000000004395 -0.000003894932 0.999999999989
31.588000000000 -0.000078322127 -0.000000568941 -0.000000175953 -0.000000000019 -0.000000000000 0.000000000000 -0.000002506053 0.000000004057 -0.000003895547 0.999999999989
31.593000000000 -0.000078322127 -0.000000573189 -0.000000175953 -0.000000000019 -0.000000000000 0.000000000000 -0.000002506053 0.000000003709 -0.000003896163 0.999999999989
31.598000000000 -0.000078322128 -0.000000577313 -0.000000175953 -0.000000000020 0.000000000000 0.000000000000 -0.000002506053 0.000000003350 -0.000003896778 0.999999999989
31.603000000000 -0.000078322128 -0.000000581312 -0.000000175953 -0.000000000020 -0.000000000001 -0.000000000000 -0.000002506053 0.000000002981 -0.000003897393 0.999999999989
31.608000000000 -0.000078322128 -0.000000585179 -0.000000175953 -0.000000000020 -0.000000000000 -0.000000000000 -0.000002506053 0.000000002602 -0.000003898009 0.999999999989
31.613000000000 -0.000078322128 -0.000000588914 -0.000000175953 -0.000000000021 -0.000000000000 0.000000000000 -0.000002506053 0.000000002214 -0.000003898624 0.999999999989
31.618000000000 -0.000078322128 -0.000000592511 -0.000000175953 -0.000000000021 0.000000000001 0.000000000000 -0.000002506053 0.000000001817 -0.000003899239 0.999999999989
31.623000000000 -0.000078322128 -0.000000595969 -0.000000175953 -0.000000000021 -0.000000000001 -0.000000000001 -0.000002506053 0.000000001411 -0.000003899855 0.999999999989
31.628000000000 -0.000078322128 -0.000000599284 -0.000000175953 -0.000000000021 0.000000000001 0.000000000001 -0.000002506053 0.000000000996 -0.000003900470 0.999999999989
31.633000000000 -0.000078322128 -0.000000602452 -0.000000175953 -0.000000000021 -0.000000000001 -0.000000000000 -0.000002506053 0.000000000573 -0.000003901085 0.999999999989
31.638000000000 -0.000078322128 -0.000000605472 -0.000000175953 -0.000000000022 0.000000000001 -0.000000000000 -0.000002506053 0.000000000143 -0.000003901701 0.999999999989
31.643000000000 -0.000078322128 -0.000000608341 -0.000000175953 -0.000000000022 -0.000000000000 0.000000000000 -0.000002506053 -0.000000000294 -0.000003902316 0.999999999989
31.648000000000 -0.000078322128 -0.000000611056 -0.000000175953 -0.000000000022 0.000000000002 -0.000000000000 -0.000002506053 -0.000000000739 -0.000003902931 0.999999999989
31.653000000000 -0.000078322128 -0.000000613615 -0.000000175953 -0.000000000022 -0.000000000000 -0.000000000000 -0.000002506053 -0.000000001190 -0.000003903546 0.999999999989
31.658000000000 -0.000078322128 -0.000000616016 -0.000000175954 -0.000000000022 0.000000000001 0.000000000000 -0.000002506053 -0.000000001647 -0.000003904162 0.999999999989
31.663000000000 -0.000078322128 -0.000000618256 -0.000000175954 -0.000000000022 0.000000000000 0.000000000000 -0.000002506053 -0.000000002110 -0.000003904777 0.999999999989
31.668000000000 -0.000078322128 -0.000000620333 -0.000000175954 -0.000000000022 -0.000000000000 -0.000000000000 -0.000002506053 -0.000000002579 -0.000003905392 0.999999999989
31.673000000000 -0.000078322128 -0.000000622247 -0.000000175954 -0.000000000022 0.000000000001 0.000000000000 -0.000002506053 -0.000000003052 -0.000003906008 0.999999999989
31.678000000000 -0.000078322128 -0.000000623994 -0.000000175954 -0.000000000023 0.000000000000 -0.000000000000 -0.000002506053 -0.000000003530 -0.000003906623 0.999999999989
31.683000000000 -0.000078322128 -0.000000625574 -0.000000175954 -0.000000000023 0.000000000000 0.000000000000 -0.000002506053 -0.000000004012 -0.000003907238 0.999999999989
31.688000000000 -0.000078322128 -0.000000626985 -0.000000175954 -0.000000000023 -0.000000000001 0.000000000000 -0.000002506053 -0.000000004498 -0.000003907854 0.999999999989
31.693000000000 -0.000078322128 -0.000000628227 -0.000000175954 -0.000000000023 0.000000000000 -0.000000000000 -0.000002506053 -0.000000004987 -0.000003908469 0.999999999989
31.698000000000 -0.000078322128 -0.000000629297 -0.000000175954 -0.000000000022 0.000000000000 0.000000000000 -0.000002506053 -0.000000005479 -0.000003909084 0.999999999989
31.703000000000 -0.000078322128 -0.000000630195 -0.000000175954 -0.000000000022 -0.000000000001 0.000000000000 -0.000002506053 -0.000000005973 -0.000003909700 0.999999999989
31.708000000000 -0.000078322128 -0.000000630920 -0.000000175954 -0.000000000022 -0.000000000000 0.000000000000 -0.000002506053 -0.000000006469 -0.000003910315 0.999999999989
31.713000000000 -0.000078322128 -0.000000631471 -0.000000175954 -0.000000000022 0.000000000000 -0.000000000000 -0.000002506053 -0.000000006967 -0.000003910930 0.999999999989
31.718000000000 -0.000078322128 -0.000000631849 -0.000000175955 -0.000000000022 -0.000000000001 -0.000000000000 -0.000002506053 -0.000000007466 -0.000003911546 0.999999999989
31.723000000000 -0.000078322128 -0.000000632052 -0.000000175955 -0.000000000022 0.000000000001 -0.000000000000 -0.000002506053 -0.000000007965 -0.000003912161 0.999999999989
31.728000000000 -0.000078322128 -0.000000632081 -0.000000175955 -0.000000000022 -0.000000000000 0.000000000000 -0.000002506053 -0.000000008465 -0.000003912776 0.999999999989
31.733000000000 -0.000078322128 -0.000000631936 -0.000000175955 -0.000000000022 -0.000000000000 -0.000000000000 -0.000002506053 -0.000000008965 -0.000003913392 0.999999999989
31.738000000000 -0.000078322128 -0.000000631616 -0.000000175955 -0.000000000022 -0.000000000001 0.000000000000 -0.000002506053 -0.000000009464 -0.000003914007 0.999999999989
31.743000000000 -0.000078322128 -0.000000631122 -0.000000175955 -0.000000000021 0.000000000001 -0.000000000000 -0.000002506053 -0.000000009962 -0.000003914622 0.999999999989
31.748000000000 -0.000078322128 -0.000000630454 -0.000000175955 -0.000000000021 0.000000000000 -0.000000000000 -0.000002506053 -0.000000010458 -0.000003915238 0.999999999989
31.753000000000 -0.000078322128 -0.000000629613 -0.000000175955 -0.000000000021 -0.000000000000 0.000000000000 -0.000002506053 -0.000000010953 -0.000003915853 0.999999999989
31.758000000000 -0.000078322128 -0.000000628600 -0.000000175955 -0.000000000021 -0.000000000000 0.000000000000 -0.000002506053 -0.000000011445 -0.000003916468 0.999999999989
31.763000000000 -0.000078322128 -0.000000627415 -0.000000175955 -0.000000000020 0.000000000000 -0.000000000000 -0.000002506053 -0.000000011934 -0.000003917084 0.999999999989
31.768000000000 -0.000078322128 -0.000000626060 -0.000000175955 -0.000000000020 -0.000000000000 0.000000000000 -0.000002506053 -0.000000012420 -0.000003917699 0.999999999989
31.773000000000 -0.000078322128 -0.000000624536 -0.000000175955 -0.000000000020 -0.000000000000 -0.000000000001 -0.000002506053 -0.000000012903 -0.000003918314 0.999999999989
31.778000000000 -0.000078322128 -0.000000622844 -0.000000175955 -0.000000000019 -0.000000000000 -0.000000000000 -0.000002506053 -0.000000013381 -0.000003918929 0.999999999989
31.783000000000 -0.000078322128 -0.000000620985 -0.000000175955 -0.000000000019 0.000000000000 0.000000000000 -0.000002506053 -0.000000013855 -0.000003919545 0.999999999989
31.788000000000 -0.000078322128 -0.000000618962 -0.000000175955 -0.000000000019 0.000000000000 0.000000000001 -0.000002506053 -0.000000014325 -0.000003920160 0.999999999989
31.793000000000 -0.000078322128 -0.000000616775 -0.000000175955 -0.000000000018 -0.000000000001 -0.000000000001 -0.000002506053 -0.000000014788 -0.000003920775 0.999999999989
31.798000000000 -0.000078322128 -0.000000614428 -0.000000175956 -0.000000000018 -0.000000000000 0.000000000000 -0.000002506053 -0.000000015246 -0.000003921391 0.999999999989
31.803000000000 -0.000078322128 -0.000000611921 -0.000000175956 -0.000000000017 -0.000000000001 -0.000000000000 -0.000002506053 -0.000000015698 -0.000003922006 0.999999999989
31.808000000000 -0.000078322128 -0.000000609257 -0.000000175956 -0.000000000017 -0.000000000001 0.000000000001 -0.000002506053 -0.000000016144 -0.000003922621 0.999999999989
31.813000000000 -0.000078322128 -0.000000606439 -0.000000175956 -0.000000000017 -0.000000000001 -0.000000000001 -0.000002506053 -0.000000016582 -0.000003923237 0.999999999989
31.818000000000 -0.000078322128 -0.000000603469 -0.000000175956 -0.000000000016 0.000000000000 -0.000000000000 -0.000002506053 -0.000000017014 -0.000003923852 0.999999999989
31.823000000000 -0.000078322128 -0.000000600349 -0.000000175956 -0.000000000016 0.000000000000 0.000000000000 -0.000002506053 -0.000000017437 -0.000003924467 0.999999999989
31.828000000000 -0.000078322128 -0.000000597082 -0.000000175956 -0.000000000015 0.000000000000 0.000000000000 -0.000002506053 -0.000000017853 -0.000003925083 0.999999999989
31.833000000000 -0.000078322128 -0.000000593672 -0.000000175956 -0.000000000015 -0.000000000001 -0.000000000000 -0.000002506053 -0.000000018260 -0.000003925698 0.999999999989
31.838000000000 -0.000078322128 -0.000000590120 -0.000000175956 -0.000000000014 0.000000000000 -0.000000000000 -0.000002506053 -0.000000018659 -0.000003926313 0.999999999989
31.843000000000 -0.000078322128 -0.000000586431 -0.000000175956 -0.000000000014 0.000000000001 0.000000000000 -0.000002506053 -0.000000019048 -0.000003926929 0.999999999989
31.848000000000 -0.000078322128 -0.000000582606 -0.000000175956 -0.000000000013 -0.000000000001 -0.000000000001 -0.000002506053 -0.000000019428 -0.000003927544 0.999999999989
31.853000000000 -0.000078322128 -0.000000578651 -0.000000175955 -0.000000000013 0.000000000000 0.000000000001 -0.000002506053 -0.000000019799 -0.000003928159 0.999999999989
31.858000000000 -0.000078322128 -0.000000574568 -0.000000175955 -0.000000000012 0.000000000001 -0.000000000000 -0.000002506053 -0.000000020159 -0.000003928775 0.999999999989
31.863000000000 -0.000078322128 -0.000000570360 -0.000000175955 -0.000000000012 -0.000000000000 0.000000000000 -0.000002506053 -0.000000020509 -0.000003929390 0.999999999989
31.868000000000 -0.000078322127 -0.000000566032 -0.000000175955 -0.000000000011 -0.000000000000 -0.000000000000 -0.000002506053 -0.000000020848 -0.000003930005 0.999999999989
31.873000000000 -0.000078322127 -0.000000561587 -0.000000175955 -0.000000000010 0.000000000000 -0.000000000000 -0.000002506053 -0.000000021176 -0.000003930621 0.999999999989
31.878000000000 -0.000078322127 -0.000000557029 -0.000000175955 -0.000000000010 0.000000000001 0.000000000000 -0.000002506053 -0.000000021492 -0.000003931236 0.999999999989
31.883000000000 -0.000078322127 -0.000000552361 -0.000000175955 -0.000000000009 -0.000000000001 -0.000000000000 -0.000002506053 -0.000000021798 -0.000003931851 0.999999999989
31.888000000000 -0.000078322127 -0.000000547589 -0.000000175955 -0.000000000009 0.000000000001 0.000000000000 -0.000002506053 -0.000000022091 -0.000003932467 0.999999999989
31.893000000000 -0.000078322127 -0.000000542717 -0.000000175955 -0.000000000008 -0.000000000001 -0.000000000000 -0.000002506053 -0.000000022372 -0.000003933082 0.999999999989
31.898000000000 -0.000078322127 -0.000000537747 -0.000000175955 -0.000000000007 0.000000000001 0.000000000000 -0.000002506053 -0.000000022641 -0.000003933697 0.999999999989
31.903000000000 -0.000078322127 -0.000000532686 -0.000000175955 -0.000000000007 -0.000000000001 -0.000000000001 -0.000002506053 -0.000000022898 -0.000003934312 0.999999999989
31.908000000000 -0.000078322127 -0.000000527537 -0.000000175955 -0.000000000006 0.000000000001 0.000000000001 -0.000002506053 -0.000000023142 -0.000003934928 0.999999999989
31.913000000000 -0.000078322127 -0.000000522304 -0.000000175955 -0.000000000006 0.000000000000 0.000000000000 -0.000002506053 -0.000000023372 -0.000003935543 0.999999999989
31.918000000000 -0.000078322127 -0.000000516993 -0.000000175954 -0.000000000005 -0.000000000000 -0.000000000000 -0.000002506053 -0.000000023590 -0.000003936158 0.999999999989
31.923000000000 -0.000078322127 -0.000000511608 -0.000000175954 -0.000000000004 0.000000000001 0.000000000000 -0.000002506053 -0.000000023794 -0.000003936774 0.999999999989
31.928000000000 -0.000078322127 -0.000000506153 -0.000000175954 -0.000000000004 -0.000000000001 0.000000000000 -0.000002506053 -0.000000023984 -0.000003937389 0.999999999989
31.933000000000 -0.000078322126 -0.000000500634 -0.000000175954 -0.000000000003 -0.000000000001 -0.000000000001 -0.000002506053 -0.000000024161 -0.000003938004 0.999999999989
31.938000000000 -0.000078322126 -0.000000495055 -0.000000175954 -0.000000000002 -0.000000000001 0.000000000000 -0.000002506053 -0.000000024324 -0.000003938620 0.999999999989
31.943000000000 -0.000078322126 -0.000000489422 -0.000000175954 -0.000000000002 -0.000000000001 0.000000000000 -0.000002506053 -0.000000024473 -0.000003939235 0.999999999989
